[
  {
    "success": true,
    "timeout": false,
    "failed_images": [],
    "failed_audio": [],
    "failed_video": [],
    "trial_type": "preload",
    "trial_index": 0,
    "plugin_version": null,
    "time_elapsed": 28
  },
  {
    "success": true,
    "rt": 7866,
    "trial_type": "fullscreen",
    "trial_index": 1,
    "plugin_version": null,
    "time_elapsed": 8911
  },
  {
    "rt": 1056,
    "stimulus": [
      "\n<h2>Introduction</h2>\n<p1>Please sit comfortably with your face around 50cm from your screen during the experiment.</p1>\n<img src=\"./assets/images/tip.png\" alt=\"Description of the image\" style=\"width:800px;height:auto; display:block; margin: 10px auto;\">\n<div style=\"text-align: center; margin-top: 0%;\">\n    <p style=\"color: #333; max-width: 80%; margin: 0 auto; line-height: 1.5;\">\n      <p1> Click the button below to proceed.</p1>\n    </p>\n</div>\n"
    ],
    "response": 0,
    "trial_type": "html-button-response",
    "trial_index": 2,
    "plugin_version": "2.0.0",
    "time_elapsed": 9970
  },
  {
    "rt": 718,
    "stimulus": [
      "The first part of the experiment will consist of two different sections:<br><br><ol style='text-align: left;'><li>A practice section so you can get familiarized with the task you will be performing.</li><li>A calibration section to ensure that everything is running correctly.</li></ol><p>Please follow the instructions throughout each section carefully.</p>Press the button below to begin."
    ],
    "response": 0,
    "trial_type": "html-button-response",
    "trial_index": 3,
    "plugin_version": "2.0.0",
    "time_elapsed": 10690
  },
  {
    "rt": 19203,
    "stimulus": [
      "\n<div style=\"overflow: hidden; height: calc(100vh - 200px); display: flex; flex-direction: column; justify-content: center; align-items: center; padding: 10px 0;\">\n  <div style=\"text-align: center; margin-bottom: 2%;\">\n    <p style=\"font-size: 1.5vw; color: #333; max-width: 80%; margin: 0 auto; line-height: 1.5;\">\n      <h2>Tutorial</h2>The video below demonstrates how the task will be performed.<br><br><ol><li> You will place your pinky on the <b>A</b> key<br></li><li> Place your ring finger on the <b>W</b> key<br></li> <li>Place your middle finger on the <b>E</b> key</li><li>Place your left thumb on the <b>spacebar</b> key</li><li>Place your right index finger on the <b>right arrow</b> key</li></ol><br><p>While still holding down with these fingers, simultaneously, when you see the <b>GO!</b>, tap the <b>F</b> key, <b>repeatedly</b> with your index finger <b>as fast as you can!</b></p><ul class = 'warning'><li>Do not tap the <b>F</b> key until the <b>GO!</b> appears</li> <li>Do not release the <b>A</b>, <b>W</b>, <b>E</b>, <b>Spacebar</b>, <b>Right Arrow</b> until prompted.</li></ul>\n    </p>\n  </div>\n  <div style=\"flex-grow: 1; display: flex; justify-content: center; align-items: center; margin: 0 auto;\">\n    <div style=\"width: 60%; max-width: 550px; height: auto; background-color: rgb(255, 255, 255);\">\n      <video\n        id=\"videoTutorial\"\n        title=\"Tutorial Video\"\n        style=\"width: 100%; height: auto;\"\n        src=\"./assets/videos/calibration-part1.mp4\"\n        autoplay\n        muted\n        loop\n      ></video>\n    </div>\n  </div>\n    <p>\n      <p1> Click the button below to proceed.</p1>\n    </p>\n</div>"
    ],
    "response": 0,
    "trial_type": "html-button-response",
    "trial_index": 4,
    "plugin_version": "2.0.0",
    "time_elapsed": 29898
  },
  {
    "rt": 838,
    "stimulus": [
      "\n<h2>Tutorial</h2>\n<p1>The image below shows how your fingers should be placed on the keyboard throughout the task.</p1>\n<img src='./assets/images/hand.png' alt=\"Description of the image\" style=\"width:500px;height:auto; display:block; margin: 10px auto;\">\n<div style=\"text-align: center; margin-top: 0%;\">\n    <p style=\"color: #333; max-width: 80%; margin: 0 auto; line-height: 1.5;\">\n      <p1> Click the button below to proceed.</p1>\n    </p>\n</div>\n"
    ],
    "response": 0,
    "trial_type": "html-button-response",
    "trial_index": 5,
    "plugin_version": "2.0.0",
    "time_elapsed": 30737
  },
  {
    "task": "countdown",
    "keyTappedEarlyFlag": false,
    "trial_type": "countdown-trial",
    "trial_index": 6,
    "plugin_version": "1.0",
    "time_elapsed": 34915
  },
  {
    "tapCount": 20,
    "startTime": 34916,
    "endTime": 41925,
    "mercuryHeight": 88,
    "error": "",
    "bounds": [20, 40],
    "reward": 0,
    "task": "practice",
    "errorOccurred": false,
    "keysReleasedFlag": false,
    "success": false,
    "keyTappedEarlyFlag": false,
    "keysState": { "a": true, "w": true, "e": true },
    "trial_type": "task-plugin",
    "trial_index": 7,
    "plugin_version": "1.0",
    "time_elapsed": 41925
  },
  {
    "errorOccurred": false,
    "trial_type": "release-keys",
    "trial_index": 8,
    "plugin_version": "1.0",
    "time_elapsed": 42508
  },
  {
    "trial_type": "html-keyboard-response",
    "trial_index": 9,
    "plugin_version": null,
    "time_elapsed": 45652
  },
  {
    "rt": 1980,
    "stimulus": [
      "<h2>Calibration</h2>You will now begin the <b>Calibration</b> section of the experiment, which consists of <b>three</b> parts. <br>Press the button below to begin."
    ],
    "response": 0,
    "trial_type": "html-button-response",
    "trial_index": 10,
    "plugin_version": "2.0.0",
    "time_elapsed": 47634
  },
  {
    "rt": 1094,
    "stimulus": "\n    <div style=\"display: flex; flex-direction: column; justify-content: center; align-items: center; text-align: center;\">\n      <p style=\"margin-bottom: 20px;\">\n        <h2>Calibration</h2><h3>Part 1</h3><p>You will perform the same task as the practice section.</p><ol><li> You will place your pinky on the <b>A</b> key<br></li><li> Place your ring finger on the <b>W</b> key<br></li> <li>Place your middle finger on the <b>E</b> key</li><li>Place your left thumb on the <b>spacebar</b> key</li><li>Place your right index finger on the <b>right arrow</b> key</li></ol><br><p>While still holding down with these fingers, simultaneously, when you see the <b>GO!</b>, tap the <b>F</b> key, <b>repeatedly</b> with your index finger <b>as fast as you can!</b></p><br><ul class = 'warning'><li>Do not tap the <b>F</b> key until the <b>GO!</b> appears</li> <li>Do not release the <b>A</b>, <b>W</b>, <b>E</b>, <b>Spacebar</b>, <b>Right Arrow</b> until prompted.</li></ul> <br><br> <p1>Press the button below to proceed.</p1>\n      </p>\n    </div>",
    "response": 0,
    "trial_type": "html-button-response",
    "trial_index": 11,
    "plugin_version": "2.0.0",
    "time_elapsed": 48730
  },
  {
    "task": "countdown",
    "keyTappedEarlyFlag": false,
    "trial_type": "countdown-trial",
    "trial_index": 12,
    "plugin_version": "1.0",
    "time_elapsed": 52408
  },
  {
    "tapCount": 21,
    "startTime": 52409,
    "endTime": 59409,
    "mercuryHeight": 100,
    "error": "",
    "bounds": [50, 50],
    "reward": 0,
    "task": "calibrationPart1",
    "errorOccurred": false,
    "keysReleasedFlag": false,
    "success": false,
    "keyTappedEarlyFlag": false,
    "keysState": { "a": true, "w": true, "e": true },
    "trial_type": "task-plugin",
    "trial_index": 13,
    "plugin_version": "1.0",
    "time_elapsed": 59410,
    "medianTaps": {
      "calibrationPart1": 21,
      "calibrationPart2": 25,
      "finalCalibrationPart1": 30,
      "finalCalibrationPart2": 35
    }
  },
  {
    "errorOccurred": false,
    "trial_type": "release-keys",
    "trial_index": 14,
    "plugin_version": "1.0",
    "time_elapsed": 59871
  },
  {
    "trial_type": "html-keyboard-response",
    "trial_index": 15,
    "plugin_version": null,
    "time_elapsed": 63704
  },
  {
    "rt": 2110,
    "stimulus": [
      "\n<div style=\"overflow: hidden; height: calc(100vh - 200px); display: flex; flex-direction: column; justify-content: center; align-items: center; padding: 10px 0;\">\n  <div style=\"text-align: center; margin-bottom: 0%;\">\n    <p>\n      <h2>Calibration</h2><h3>Part 2</h3><p1>Get the red bar as high as possible with your taps!</p1><br><ul class = 'warning'><li>Do not tap the <b>F</b> key until the <b>GO!</b> appears</li> <li>Do not release the <b>A</b>, <b>W</b>, <b>E</b>, <b>Spacebar</b>, <b>Right Arrow</b> until prompted.</li></ul>\n    </p>\n  </div>\n  <div style=\"flex-grow: 1; display: flex; justify-content: center; align-items: center;\">\n    <div style=\"width: 40%; max-width: 700px; height: auto; background-color: rgb(255, 255, 255);\">\n      <video\n        id=\"videoTutorial\"\n        title=\"Tutorial Video\"\n        style=\"width: 100%; height: auto;\"\n        src=\"./assets/videos/calibration-part2.mp4\"\n        autoplay\n        muted\n        loop\n      ></video>\n    </div>\n  </div>\n  <div style=\"text-align: center; margin-top: 0%;\">\n    <p>\n      <p1> Click the button below to proceed.</p1>\n    </p>\n  </div>\n</div>"
    ],
    "response": 0,
    "trial_type": "html-button-response",
    "trial_index": 17,
    "plugin_version": "2.0.0",
    "time_elapsed": 65825
  },
  {
    "task": "countdown",
    "keyTappedEarlyFlag": false,
    "trial_type": "countdown-trial",
    "trial_index": 18,
    "plugin_version": "1.0",
    "time_elapsed": 69446
  },
  {
    "tapCount": 25,
    "startTime": 69446,
    "endTime": 76455,
    "mercuryHeight": 96,
    "error": "",
    "bounds": [50, 50],
    "reward": 0,
    "task": "calibrationPart2",
    "errorOccurred": false,
    "keysReleasedFlag": false,
    "success": false,
    "keyTappedEarlyFlag": false,
    "keysState": { "a": true, "w": true, "e": true },
    "trial_type": "task-plugin",
    "trial_index": 19,
    "plugin_version": "1.0",
    "time_elapsed": 76456,
    "medianTaps": {
      "calibrationPart1": 21,
      "calibrationPart2": 25,
      "finalCalibrationPart1": 30,
      "finalCalibrationPart2": 35
    }
  },
  {
    "errorOccurred": false,
    "trial_type": "release-keys",
    "trial_index": 20,
    "plugin_version": "1.0",
    "time_elapsed": 76969
  },
  {
    "trial_type": "html-keyboard-response",
    "trial_index": 21,
    "plugin_version": null,
    "time_elapsed": 80414
  },
  {
    "rt": 1643,
    "stimulus": [
      "\n<div style=\"overflow: hidden; height: calc(100vh - 200px); display: flex; flex-direction: column; justify-content: center; align-items: center; padding: 10px 0;\">\n  <div style=\"text-align: center; margin-bottom: 0%;\">\n    <p>\n      <h2>Calibration</h2><h3>Part 3</h3><p1>Get the top of the red bar in the target area with your taps!</p1><br><ul class = 'warning'><li>Do not tap the <b>F</b> key until the <b>GO!</b> appears</li> <li>Do not release the <b>A</b>, <b>W</b>, <b>E</b>, <b>Spacebar</b>, <b>Right Arrow</b> until prompted.</li></ul>\n    </p>\n  </div>\n  <div style=\"flex-grow: 1; display: flex; justify-content: center; align-items: center;\">\n    <div style=\"width: 100%; max-width: 500px; height: auto; background-color: rgb(255, 255, 255);\">\n      <video\n        id=\"videoTutorial\"\n        title=\"Tutorial Video\"\n        style=\"width: 100%; height: auto;\"\n        src=\"./assets/videos/validation.mp4\"\n        autoplay\n        muted\n        loop\n      ></video>\n    </div>\n  </div>\n  <div style=\"text-align: center; margin-top: 0%;\">\n    <p>\n      <p1> Click the button below to proceed.</p1>\n    </p>\n  </div>\n</div>"
    ],
    "response": 0,
    "trial_type": "html-button-response",
    "trial_index": 23,
    "plugin_version": "2.0.0",
    "time_elapsed": 82065
  },
  {
    "task": "countdown",
    "keyTappedEarlyFlag": false,
    "trial_type": "countdown-trial",
    "trial_index": 24,
    "plugin_version": "1.0",
    "time_elapsed": 85786
  },
  {
    "task": "validationEasy",
    "tapCount": 17,
    "startTime": 85786,
    "endTime": 92791,
    "mercuryHeight": 43.20000000000002,
    "error": "",
    "bounds": [30, 50],
    "reward": 0,
    "errorOccurred": false,
    "keysReleasedFlag": false,
    "success": true,
    "keyTappedEarlyFlag": false,
    "keysState": { "a": true, "w": true, "e": true },
    "trial_type": "task-plugin",
    "trial_index": 25,
    "plugin_version": "1.0",
    "time_elapsed": 92792
  },
  {
    "errorOccurred": false,
    "trial_type": "release-keys",
    "trial_index": 26,
    "plugin_version": "1.0",
    "time_elapsed": 93450
  },
  {
    "task": "success",
    "success": true,
    "trial_type": "success-screen-plugin",
    "trial_index": 27,
    "plugin_version": null,
    "time_elapsed": 93952
  },
  {
    "trial_type": "html-keyboard-response",
    "trial_index": 28,
    "plugin_version": null,
    "time_elapsed": 97669
  },
  {
    "task": "countdown",
    "keyTappedEarlyFlag": false,
    "trial_type": "countdown-trial",
    "trial_index": 29,
    "plugin_version": "1.0",
    "time_elapsed": 101171
  },
  {
    "task": "validationMedium",
    "tapCount": 19,
    "startTime": 101172,
    "endTime": 108184,
    "mercuryHeight": 56.39999999999995,
    "error": "",
    "bounds": [50, 70],
    "reward": 0,
    "errorOccurred": false,
    "keysReleasedFlag": false,
    "success": true,
    "keyTappedEarlyFlag": false,
    "keysState": { "a": true, "w": true, "e": true },
    "trial_type": "task-plugin",
    "trial_index": 30,
    "plugin_version": "1.0",
    "time_elapsed": 108184
  },
  {
    "errorOccurred": false,
    "trial_type": "release-keys",
    "trial_index": 31,
    "plugin_version": "1.0",
    "time_elapsed": 108767
  },
  {
    "task": "success",
    "success": true,
    "trial_type": "success-screen-plugin",
    "trial_index": 32,
    "plugin_version": null,
    "time_elapsed": 109272
  },
  {
    "trial_type": "html-keyboard-response",
    "trial_index": 33,
    "plugin_version": null,
    "time_elapsed": 112657
  },
  {
    "task": "countdown",
    "keyTappedEarlyFlag": false,
    "trial_type": "countdown-trial",
    "trial_index": 34,
    "plugin_version": "1.0",
    "time_elapsed": 116086
  },
  {
    "task": "validationHard",
    "tapCount": 22,
    "startTime": 116086,
    "endTime": 123088,
    "mercuryHeight": 83.19999999999993,
    "error": "",
    "bounds": [70, 90],
    "reward": 0,
    "errorOccurred": false,
    "keysReleasedFlag": false,
    "success": true,
    "keyTappedEarlyFlag": false,
    "keysState": { "a": true, "w": true, "e": true },
    "trial_type": "task-plugin",
    "trial_index": 35,
    "plugin_version": "1.0",
    "time_elapsed": 123088
  },
  {
    "errorOccurred": false,
    "trial_type": "release-keys",
    "trial_index": 36,
    "plugin_version": "1.0",
    "time_elapsed": 123552
  },
  {
    "task": "success",
    "success": true,
    "trial_type": "success-screen-plugin",
    "trial_index": 37,
    "plugin_version": null,
    "time_elapsed": 124064
  },
  {
    "trial_type": "html-keyboard-response",
    "trial_index": 38,
    "plugin_version": null,
    "time_elapsed": 127635
  },
  {
    "additional": true,
    "validation": true,
    "rt": 3173,
    "response": { "Your Level of Attention": 4 },
    "question_order": [0],
    "trial_type": "survey-likert",
    "trial_index": 40,
    "plugin_version": null,
    "time_elapsed": 130809
  },
  {
    "additional": true,
    "validation": true,
    "rt": 1838,
    "response": { "Your Level of Motivation": 4 },
    "question_order": [0],
    "trial_type": "survey-likert",
    "trial_index": 41,
    "plugin_version": null,
    "time_elapsed": 132649
  },
  {
    "additional": true,
    "validation": true,
    "rt": 2215,
    "response": { "Your Level of Muscular Fatigue of the Left Arm": 4 },
    "question_order": [0],
    "trial_type": "survey-likert",
    "trial_index": 42,
    "plugin_version": null,
    "time_elapsed": 134865
  },
  {
    "additional": true,
    "validation": true,
    "rt": 2159,
    "response": { "Your Level of Overall Tiredness": 4 },
    "question_order": [0],
    "trial_type": "survey-likert",
    "trial_index": 43,
    "plugin_version": null,
    "time_elapsed": 137025
  },
  {
    "rt": 798,
    "stimulus": "You will now enter the next phase of the experiment. Press the button below to proceed.",
    "response": 0,
    "trial_type": "html-button-response",
    "trial_index": 44,
    "plugin_version": "2.0.0",
    "time_elapsed": 137824
  },
  {
    "rt": 1183,
    "stimulus": [
      "<h2>Trial Blocks</h2><h3>Part 1</h3>During this next phase of the experiment, you will have the choice to skip or accept a trial.<br><br>You may skip the trial with the <b>Left Arrow</b> on your keyboard<br>or<br>You may accept a trial with the <b>Right Arrow</b> on your keyboard<br><br>If the trial is accepted, you <b>may</b> have to complete a tapping task: <br><br><ul><li style='text-align:left'>The required target area will be shown in <b>blue</b>.<li style='text-align:left'>If the <b>top of the red bar</b> ends in the target area during the trial, you will receive the reward shown to you.</li></ul><h4>ⓘ Before the block begins, you will have a set of practice trials to familiarize yourself with the task.</h4><p style='text-align: center;'>Press the button below to proceed.</p> "
    ],
    "response": 0,
    "trial_type": "html-button-response",
    "trial_index": 45,
    "plugin_version": "2.0.0",
    "time_elapsed": 139008
  },
  {
    "rt": 991,
    "stimulus": "<p><p><br>The next <b>3</b> trials you will complete are <b>practice</b> trials.<br>The feedback you receive on the display when the <b>F</b> key is tapped will be the same as in the next block of trials that you will complete. <br><br> Attempt to finish the trial with the top of the red bar within the target area. <br><ul class = 'warning'><li>Do not tap the <b>F</b> key until the <b>GO!</b> appears</li> <li>Do not release the <b>A</b>, <b>W</b>, <b>E</b>, <b>Spacebar</b>, <b>Right Arrow</b> until prompted.</li></ul></p>",
    "response": 0,
    "trial_type": "html-button-response",
    "trial_index": 46,
    "plugin_version": "2.0.0",
    "time_elapsed": 140001
  },
  {
    "task": "countdown",
    "keyTappedEarlyFlag": false,
    "trial_type": "countdown-trial",
    "trial_index": 47,
    "plugin_version": "1.0",
    "time_elapsed": 143616
  },
  {
    "blockType": "sync",
    "task": "demo",
    "randomDelay": [0, 0],
    "bounds": [30, 50],
    "reward": 0,
    "tapCount": 17,
    "startTime": 143617,
    "endTime": 150625,
    "mercuryHeight": 41.20000000000002,
    "error": "",
    "errorOccurred": false,
    "keysReleasedFlag": false,
    "success": true,
    "keyTappedEarlyFlag": false,
    "keysState": { "a": true, "w": true, "e": true },
    "trial_type": "task-plugin",
    "trial_index": 48,
    "plugin_version": "1.0",
    "time_elapsed": 150626,
    "minimumTapsReached": true
  },
  {
    "errorOccurred": false,
    "trial_type": "release-keys",
    "trial_index": 49,
    "plugin_version": "1.0",
    "time_elapsed": 151137
  },
  {
    "trial_type": "html-keyboard-response",
    "trial_index": 51,
    "plugin_version": null,
    "time_elapsed": 154594
  },
  {
    "task": "countdown",
    "keyTappedEarlyFlag": false,
    "trial_type": "countdown-trial",
    "trial_index": 52,
    "plugin_version": "1.0",
    "time_elapsed": 158048
  },
  {
    "blockType": "sync",
    "task": "demo",
    "randomDelay": [0, 0],
    "bounds": [50, 70],
    "reward": 0,
    "tapCount": 19,
    "startTime": 158048,
    "endTime": 165052,
    "mercuryHeight": 60.39999999999996,
    "error": "",
    "errorOccurred": false,
    "keysReleasedFlag": false,
    "success": true,
    "keyTappedEarlyFlag": false,
    "keysState": { "a": true, "w": true, "e": true },
    "trial_type": "task-plugin",
    "trial_index": 53,
    "plugin_version": "1.0",
    "time_elapsed": 165052,
    "minimumTapsReached": true
  },
  {
    "errorOccurred": false,
    "trial_type": "release-keys",
    "trial_index": 54,
    "plugin_version": "1.0",
    "time_elapsed": 165597
  },
  {
    "trial_type": "html-keyboard-response",
    "trial_index": 56,
    "plugin_version": null,
    "time_elapsed": 169150
  },
  {
    "task": "countdown",
    "keyTappedEarlyFlag": false,
    "trial_type": "countdown-trial",
    "trial_index": 57,
    "plugin_version": "1.0",
    "time_elapsed": 174562
  },
  {
    "blockType": "sync",
    "task": "demo",
    "randomDelay": [0, 0],
    "bounds": [70, 90],
    "reward": 0,
    "tapCount": 21,
    "startTime": 174562,
    "endTime": 181573,
    "mercuryHeight": 77.59999999999994,
    "error": "",
    "errorOccurred": false,
    "keysReleasedFlag": false,
    "success": true,
    "keyTappedEarlyFlag": false,
    "keysState": { "a": true, "w": true, "e": true },
    "trial_type": "task-plugin",
    "trial_index": 58,
    "plugin_version": "1.0",
    "time_elapsed": 181574,
    "minimumTapsReached": true
  },
  {
    "errorOccurred": false,
    "trial_type": "release-keys",
    "trial_index": 59,
    "plugin_version": "1.0",
    "time_elapsed": 182096
  },
  {
    "trial_type": "html-keyboard-response",
    "trial_index": 61,
    "plugin_version": null,
    "time_elapsed": 185626
  },
  {
    "rt": 2894,
    "stimulus": [
      "You will now answer a few questions. Press the button below to proceed."
    ],
    "response": 0,
    "trial_type": "html-button-response",
    "trial_index": 62,
    "plugin_version": "2.0.0",
    "time_elapsed": 188521
  },
  {
    "rt": 2143,
    "response": { "I felt I was in control of the bar's movement.": 3 },
    "question_order": [0],
    "trial_type": "survey-likert",
    "trial_index": 63,
    "plugin_version": null,
    "time_elapsed": 190666
  },
  {
    "additional": true,
    "rt": 649,
    "response": { "I found the task difficult.": 3 },
    "question_order": [0],
    "trial_type": "survey-likert",
    "trial_index": 64,
    "plugin_version": null,
    "time_elapsed": 191317
  },
  {
    "task": "accept",
    "reward": 0.05,
    "bounds": [72.62589262228632, 92.62589262228632],
    "originalBounds": [70, 90],
    "delay": [0, 0],
    "rt": 3009,
    "stimulus": "\n<div\n  id=\"acceptance-container\"\n  style=\"display: flex; flex-direction: column; justify-content: center; align-items: center; height: 100%;\"\n>\n  <div\n    id=\"thermometer-container\"\n    style=\"display: flex; justify-content: center; align-items: center; height: 300px; width: 100px; border: 1px solid #000; margin-bottom: 10px; box-sizing: border-box;\"\n  >\n    <div\n      id=\"thermometer\"\n      style=\"position: relative; width: 100%; height: 100%; background-color: #e0e0e0; box-sizing: border-box;\"\n    >\n      <div\n        id=\"blue-area\"\n        style=\"position: absolute; bottom: 72.62589262228632%; height: 20%; width: 100%; background-color: blue;\"\n      ></div>\n      <div\n        id=\"lower-bound\"\n        style=\"position: absolute; bottom: 72.62589262228632%; width: 100%; height: 2px; background-color: black;\"\n      ></div>\n      <div\n        id=\"upper-bound\"\n        style=\"position: absolute; bottom: 92.62589262228632%; width: 100%; height: 2px; background-color: black;\"\n      ></div>\n    </div>\n  </div>\n  <p style=\"text-align: center;\">Reward:  CHF 0.05</p>\n  <p style=\"text-align: center;\"><br>Press the <b>Right Arrow</b> on your keyboard to accept the trial <svg class='right-arrow' style='width: 48px; height: 48px;'xmlns='http://www.w3.org/2000/svg' viewBox='0 0 16 16'><path fill-rule='evenodd' d='M10.146 4.646a.5.5 0 0 1 .708 0l2.646 2.647-2.646 2.646a.5.5 0 0 1-.708-.707L11.293 8H2a.5.5 0 0 1 0-1h9.293L10.146 5.354a.5.5 0 0 1 0-.708z'/></svg><br>or<br><svg class='left-arrow' style='width: 48px; height: 48px;' xmlns='http://www.w3.org/2000/svg' viewBox='0 0 16 16'><path fill-rule='evenodd' d='M5.854 4.646a.5.5 0 0 0-.708 0L2.5 7.293l2.646 2.647a.5.5 0 0 0 .708-.707L4.707 8H14a.5.5 0 0 0 0-1H4.707l1.147-1.146a.5.5 0 0 0 0-.708z'/></svg>Press the <b>Left Arrow</b> on your keyboard to skip the trial</p>\n</div>\n",
    "response": "ArrowLeft",
    "trial_type": "html-keyboard-response",
    "trial_index": 65,
    "plugin_version": null,
    "time_elapsed": 194328,
    "accepted": false
  },
  {
    "task": "accept",
    "reward": 0.01,
    "bounds": [50.19803533770613, 70.19803533770613],
    "originalBounds": [50, 70],
    "delay": [0, 0],
    "rt": 532,
    "stimulus": "\n<div\n  id=\"acceptance-container\"\n  style=\"display: flex; flex-direction: column; justify-content: center; align-items: center; height: 100%;\"\n>\n  <div\n    id=\"thermometer-container\"\n    style=\"display: flex; justify-content: center; align-items: center; height: 300px; width: 100px; border: 1px solid #000; margin-bottom: 10px; box-sizing: border-box;\"\n  >\n    <div\n      id=\"thermometer\"\n      style=\"position: relative; width: 100%; height: 100%; background-color: #e0e0e0; box-sizing: border-box;\"\n    >\n      <div\n        id=\"blue-area\"\n        style=\"position: absolute; bottom: 50.19803533770613%; height: 20%; width: 100%; background-color: blue;\"\n      ></div>\n      <div\n        id=\"lower-bound\"\n        style=\"position: absolute; bottom: 50.19803533770613%; width: 100%; height: 2px; background-color: black;\"\n      ></div>\n      <div\n        id=\"upper-bound\"\n        style=\"position: absolute; bottom: 70.19803533770613%; width: 100%; height: 2px; background-color: black;\"\n      ></div>\n    </div>\n  </div>\n  <p style=\"text-align: center;\">Reward:  CHF 0.01</p>\n  <p style=\"text-align: center;\"><br>Press the <b>Right Arrow</b> on your keyboard to accept the trial <svg class='right-arrow' style='width: 48px; height: 48px;'xmlns='http://www.w3.org/2000/svg' viewBox='0 0 16 16'><path fill-rule='evenodd' d='M10.146 4.646a.5.5 0 0 1 .708 0l2.646 2.647-2.646 2.646a.5.5 0 0 1-.708-.707L11.293 8H2a.5.5 0 0 1 0-1h9.293L10.146 5.354a.5.5 0 0 1 0-.708z'/></svg><br>or<br><svg class='left-arrow' style='width: 48px; height: 48px;' xmlns='http://www.w3.org/2000/svg' viewBox='0 0 16 16'><path fill-rule='evenodd' d='M5.854 4.646a.5.5 0 0 0-.708 0L2.5 7.293l2.646 2.647a.5.5 0 0 0 .708-.707L4.707 8H14a.5.5 0 0 0 0-1H4.707l1.147-1.146a.5.5 0 0 0 0-.708z'/></svg>Press the <b>Left Arrow</b> on your keyboard to skip the trial</p>\n</div>\n",
    "response": "ArrowLeft",
    "trial_type": "html-keyboard-response",
    "trial_index": 67,
    "plugin_version": null,
    "time_elapsed": 194862,
    "accepted": false
  },
  {
    "task": "accept",
    "reward": 0.11,
    "bounds": [47.773633422674806, 67.7736334226748],
    "originalBounds": [50, 70],
    "delay": [0, 0],
    "rt": 511,
    "stimulus": "\n<div\n  id=\"acceptance-container\"\n  style=\"display: flex; flex-direction: column; justify-content: center; align-items: center; height: 100%;\"\n>\n  <div\n    id=\"thermometer-container\"\n    style=\"display: flex; justify-content: center; align-items: center; height: 300px; width: 100px; border: 1px solid #000; margin-bottom: 10px; box-sizing: border-box;\"\n  >\n    <div\n      id=\"thermometer\"\n      style=\"position: relative; width: 100%; height: 100%; background-color: #e0e0e0; box-sizing: border-box;\"\n    >\n      <div\n        id=\"blue-area\"\n        style=\"position: absolute; bottom: 47.773633422674806%; height: 20%; width: 100%; background-color: blue;\"\n      ></div>\n      <div\n        id=\"lower-bound\"\n        style=\"position: absolute; bottom: 47.773633422674806%; width: 100%; height: 2px; background-color: black;\"\n      ></div>\n      <div\n        id=\"upper-bound\"\n        style=\"position: absolute; bottom: 67.7736334226748%; width: 100%; height: 2px; background-color: black;\"\n      ></div>\n    </div>\n  </div>\n  <p style=\"text-align: center;\">Reward:  CHF 0.11</p>\n  <p style=\"text-align: center;\"><br>Press the <b>Right Arrow</b> on your keyboard to accept the trial <svg class='right-arrow' style='width: 48px; height: 48px;'xmlns='http://www.w3.org/2000/svg' viewBox='0 0 16 16'><path fill-rule='evenodd' d='M10.146 4.646a.5.5 0 0 1 .708 0l2.646 2.647-2.646 2.646a.5.5 0 0 1-.708-.707L11.293 8H2a.5.5 0 0 1 0-1h9.293L10.146 5.354a.5.5 0 0 1 0-.708z'/></svg><br>or<br><svg class='left-arrow' style='width: 48px; height: 48px;' xmlns='http://www.w3.org/2000/svg' viewBox='0 0 16 16'><path fill-rule='evenodd' d='M5.854 4.646a.5.5 0 0 0-.708 0L2.5 7.293l2.646 2.647a.5.5 0 0 0 .708-.707L4.707 8H14a.5.5 0 0 0 0-1H4.707l1.147-1.146a.5.5 0 0 0 0-.708z'/></svg>Press the <b>Left Arrow</b> on your keyboard to skip the trial</p>\n</div>\n",
    "response": "ArrowRight",
    "trial_type": "html-keyboard-response",
    "trial_index": 69,
    "plugin_version": null,
    "time_elapsed": 195374,
    "accepted": true
  },
  {
    "task": "countdown",
    "keyTappedEarlyFlag": false,
    "trial_type": "countdown-trial",
    "trial_index": 70,
    "plugin_version": "1.0",
    "time_elapsed": 199018
  },
  {
    "blockType": "sync",
    "task": "block",
    "randomDelay": [0, 0],
    "bounds": [47.773633422674806, 67.7736334226748],
    "reward": 0.11,
    "tapCount": 20,
    "startTime": 199019,
    "endTime": 206019,
    "mercuryHeight": 64,
    "error": "",
    "errorOccurred": false,
    "keysReleasedFlag": false,
    "success": true,
    "keyTappedEarlyFlag": false,
    "keysState": { "a": true, "w": true, "e": true },
    "trial_type": "task-plugin",
    "trial_index": 71,
    "plugin_version": "1.0",
    "time_elapsed": 206020,
    "medianTaps": { "calibrationPart1Median": 21, "calibrationPart2Median": 25 }
  },
  {
    "errorOccurred": false,
    "trial_type": "release-keys",
    "trial_index": 72,
    "plugin_version": "1.0",
    "time_elapsed": 206509
  },
  {
    "task": "success",
    "success": true,
    "trial_type": "success-screen-plugin",
    "trial_index": 73,
    "plugin_version": null,
    "time_elapsed": 207016
  },
  {
    "trial_type": "html-keyboard-response",
    "trial_index": 75,
    "plugin_version": null,
    "time_elapsed": 210883
  },
  {
    "task": "accept",
    "reward": 0.1,
    "bounds": [28.62219879496304, 48.62219879496304],
    "originalBounds": [30, 50],
    "delay": [0, 0],
    "rt": 2135,
    "stimulus": "\n<div\n  id=\"acceptance-container\"\n  style=\"display: flex; flex-direction: column; justify-content: center; align-items: center; height: 100%;\"\n>\n  <div\n    id=\"thermometer-container\"\n    style=\"display: flex; justify-content: center; align-items: center; height: 300px; width: 100px; border: 1px solid #000; margin-bottom: 10px; box-sizing: border-box;\"\n  >\n    <div\n      id=\"thermometer\"\n      style=\"position: relative; width: 100%; height: 100%; background-color: #e0e0e0; box-sizing: border-box;\"\n    >\n      <div\n        id=\"blue-area\"\n        style=\"position: absolute; bottom: 28.62219879496304%; height: 20%; width: 100%; background-color: blue;\"\n      ></div>\n      <div\n        id=\"lower-bound\"\n        style=\"position: absolute; bottom: 28.62219879496304%; width: 100%; height: 2px; background-color: black;\"\n      ></div>\n      <div\n        id=\"upper-bound\"\n        style=\"position: absolute; bottom: 48.62219879496304%; width: 100%; height: 2px; background-color: black;\"\n      ></div>\n    </div>\n  </div>\n  <p style=\"text-align: center;\">Reward:  CHF 0.10</p>\n  <p style=\"text-align: center;\"><br>Press the <b>Right Arrow</b> on your keyboard to accept the trial <svg class='right-arrow' style='width: 48px; height: 48px;'xmlns='http://www.w3.org/2000/svg' viewBox='0 0 16 16'><path fill-rule='evenodd' d='M10.146 4.646a.5.5 0 0 1 .708 0l2.646 2.647-2.646 2.646a.5.5 0 0 1-.708-.707L11.293 8H2a.5.5 0 0 1 0-1h9.293L10.146 5.354a.5.5 0 0 1 0-.708z'/></svg><br>or<br><svg class='left-arrow' style='width: 48px; height: 48px;' xmlns='http://www.w3.org/2000/svg' viewBox='0 0 16 16'><path fill-rule='evenodd' d='M5.854 4.646a.5.5 0 0 0-.708 0L2.5 7.293l2.646 2.647a.5.5 0 0 0 .708-.707L4.707 8H14a.5.5 0 0 0 0-1H4.707l1.147-1.146a.5.5 0 0 0 0-.708z'/></svg>Press the <b>Left Arrow</b> on your keyboard to skip the trial</p>\n</div>\n",
    "response": "ArrowRight",
    "trial_type": "html-keyboard-response",
    "trial_index": 76,
    "plugin_version": null,
    "time_elapsed": 213018,
    "accepted": true
  },
  {
    "blockType": "sync",
    "task": "block",
    "randomDelay": [0, 0],
    "bounds": [28.62219879496304, 48.62219879496304],
    "reward": 0.1,
    "tapCount": 0,
    "startTime": 0,
    "endTime": 0,
    "mercuryHeight": 0,
    "error": "",
    "errorOccurred": false,
    "keysReleasedFlag": false,
    "success": true,
    "keyTappedEarlyFlag": false,
    "keysState": { "a": true, "w": true, "e": true },
    "trial_type": "task-plugin",
    "trial_index": 77,
    "plugin_version": "1.0",
    "time_elapsed": 213019,
    "medianTaps": { "calibrationPart1Median": 21, "calibrationPart2Median": 25 }
  },
  {
    "task": "success",
    "success": true,
    "trial_type": "success-screen-plugin",
    "trial_index": 79,
    "plugin_version": null,
    "time_elapsed": 213542
  },
  {
    "trial_type": "html-keyboard-response",
    "trial_index": 80,
    "plugin_version": null,
    "time_elapsed": 213964
  },
  {
    "task": "accept",
    "reward": 0.02,
    "bounds": [70.30582391735027, 90.30582391735027],
    "originalBounds": [70, 90],
    "delay": [0, 0],
    "rt": 742,
    "stimulus": "\n<div\n  id=\"acceptance-container\"\n  style=\"display: flex; flex-direction: column; justify-content: center; align-items: center; height: 100%;\"\n>\n  <div\n    id=\"thermometer-container\"\n    style=\"display: flex; justify-content: center; align-items: center; height: 300px; width: 100px; border: 1px solid #000; margin-bottom: 10px; box-sizing: border-box;\"\n  >\n    <div\n      id=\"thermometer\"\n      style=\"position: relative; width: 100%; height: 100%; background-color: #e0e0e0; box-sizing: border-box;\"\n    >\n      <div\n        id=\"blue-area\"\n        style=\"position: absolute; bottom: 70.30582391735027%; height: 20%; width: 100%; background-color: blue;\"\n      ></div>\n      <div\n        id=\"lower-bound\"\n        style=\"position: absolute; bottom: 70.30582391735027%; width: 100%; height: 2px; background-color: black;\"\n      ></div>\n      <div\n        id=\"upper-bound\"\n        style=\"position: absolute; bottom: 90.30582391735027%; width: 100%; height: 2px; background-color: black;\"\n      ></div>\n    </div>\n  </div>\n  <p style=\"text-align: center;\">Reward:  CHF 0.02</p>\n  <p style=\"text-align: center;\"><br>Press the <b>Right Arrow</b> on your keyboard to accept the trial <svg class='right-arrow' style='width: 48px; height: 48px;'xmlns='http://www.w3.org/2000/svg' viewBox='0 0 16 16'><path fill-rule='evenodd' d='M10.146 4.646a.5.5 0 0 1 .708 0l2.646 2.647-2.646 2.646a.5.5 0 0 1-.708-.707L11.293 8H2a.5.5 0 0 1 0-1h9.293L10.146 5.354a.5.5 0 0 1 0-.708z'/></svg><br>or<br><svg class='left-arrow' style='width: 48px; height: 48px;' xmlns='http://www.w3.org/2000/svg' viewBox='0 0 16 16'><path fill-rule='evenodd' d='M5.854 4.646a.5.5 0 0 0-.708 0L2.5 7.293l2.646 2.647a.5.5 0 0 0 .708-.707L4.707 8H14a.5.5 0 0 0 0-1H4.707l1.147-1.146a.5.5 0 0 0 0-.708z'/></svg>Press the <b>Left Arrow</b> on your keyboard to skip the trial</p>\n</div>\n",
    "response": "ArrowLeft",
    "trial_type": "html-keyboard-response",
    "trial_index": 82,
    "plugin_version": null,
    "time_elapsed": 214708,
    "accepted": false
  },
  {
    "task": "accept",
    "reward": 0.05,
    "bounds": [35.32471625836186, 55.32471625836186],
    "originalBounds": [30, 50],
    "delay": [0, 0],
    "rt": 903,
    "stimulus": "\n<div\n  id=\"acceptance-container\"\n  style=\"display: flex; flex-direction: column; justify-content: center; align-items: center; height: 100%;\"\n>\n  <div\n    id=\"thermometer-container\"\n    style=\"display: flex; justify-content: center; align-items: center; height: 300px; width: 100px; border: 1px solid #000; margin-bottom: 10px; box-sizing: border-box;\"\n  >\n    <div\n      id=\"thermometer\"\n      style=\"position: relative; width: 100%; height: 100%; background-color: #e0e0e0; box-sizing: border-box;\"\n    >\n      <div\n        id=\"blue-area\"\n        style=\"position: absolute; bottom: 35.32471625836186%; height: 20%; width: 100%; background-color: blue;\"\n      ></div>\n      <div\n        id=\"lower-bound\"\n        style=\"position: absolute; bottom: 35.32471625836186%; width: 100%; height: 2px; background-color: black;\"\n      ></div>\n      <div\n        id=\"upper-bound\"\n        style=\"position: absolute; bottom: 55.32471625836186%; width: 100%; height: 2px; background-color: black;\"\n      ></div>\n    </div>\n  </div>\n  <p style=\"text-align: center;\">Reward:  CHF 0.05</p>\n  <p style=\"text-align: center;\"><br>Press the <b>Right Arrow</b> on your keyboard to accept the trial <svg class='right-arrow' style='width: 48px; height: 48px;'xmlns='http://www.w3.org/2000/svg' viewBox='0 0 16 16'><path fill-rule='evenodd' d='M10.146 4.646a.5.5 0 0 1 .708 0l2.646 2.647-2.646 2.646a.5.5 0 0 1-.708-.707L11.293 8H2a.5.5 0 0 1 0-1h9.293L10.146 5.354a.5.5 0 0 1 0-.708z'/></svg><br>or<br><svg class='left-arrow' style='width: 48px; height: 48px;' xmlns='http://www.w3.org/2000/svg' viewBox='0 0 16 16'><path fill-rule='evenodd' d='M5.854 4.646a.5.5 0 0 0-.708 0L2.5 7.293l2.646 2.647a.5.5 0 0 0 .708-.707L4.707 8H14a.5.5 0 0 0 0-1H4.707l1.147-1.146a.5.5 0 0 0 0-.708z'/></svg>Press the <b>Left Arrow</b> on your keyboard to skip the trial</p>\n</div>\n",
    "response": "ArrowRight",
    "trial_type": "html-keyboard-response",
    "trial_index": 84,
    "plugin_version": null,
    "time_elapsed": 215612,
    "accepted": true
  },
  {
    "blockType": "sync",
    "task": "block",
    "randomDelay": [0, 0],
    "bounds": [35.32471625836186, 55.32471625836186],
    "reward": 0.05,
    "tapCount": 0,
    "startTime": 0,
    "endTime": 0,
    "mercuryHeight": 0,
    "error": "",
    "errorOccurred": false,
    "keysReleasedFlag": false,
    "success": true,
    "keyTappedEarlyFlag": false,
    "keysState": { "a": true, "w": true, "e": true },
    "trial_type": "task-plugin",
    "trial_index": 85,
    "plugin_version": "1.0",
    "time_elapsed": 215612,
    "medianTaps": { "calibrationPart1Median": 21, "calibrationPart2Median": 25 }
  },
  {
    "task": "success",
    "success": true,
    "trial_type": "success-screen-plugin",
    "trial_index": 87,
    "plugin_version": null,
    "time_elapsed": 216128
  },
  {
    "trial_type": "html-keyboard-response",
    "trial_index": 88,
    "plugin_version": null,
    "time_elapsed": 216445
  },
  {
    "task": "accept",
    "reward": 0.05,
    "bounds": [51.73823365208223, 71.73823365208223],
    "originalBounds": [50, 70],
    "delay": [0, 0],
    "rt": 1879,
    "stimulus": "\n<div\n  id=\"acceptance-container\"\n  style=\"display: flex; flex-direction: column; justify-content: center; align-items: center; height: 100%;\"\n>\n  <div\n    id=\"thermometer-container\"\n    style=\"display: flex; justify-content: center; align-items: center; height: 300px; width: 100px; border: 1px solid #000; margin-bottom: 10px; box-sizing: border-box;\"\n  >\n    <div\n      id=\"thermometer\"\n      style=\"position: relative; width: 100%; height: 100%; background-color: #e0e0e0; box-sizing: border-box;\"\n    >\n      <div\n        id=\"blue-area\"\n        style=\"position: absolute; bottom: 51.73823365208223%; height: 20%; width: 100%; background-color: blue;\"\n      ></div>\n      <div\n        id=\"lower-bound\"\n        style=\"position: absolute; bottom: 51.73823365208223%; width: 100%; height: 2px; background-color: black;\"\n      ></div>\n      <div\n        id=\"upper-bound\"\n        style=\"position: absolute; bottom: 71.73823365208223%; width: 100%; height: 2px; background-color: black;\"\n      ></div>\n    </div>\n  </div>\n  <p style=\"text-align: center;\">Reward:  CHF 0.05</p>\n  <p style=\"text-align: center;\"><br>Press the <b>Right Arrow</b> on your keyboard to accept the trial <svg class='right-arrow' style='width: 48px; height: 48px;'xmlns='http://www.w3.org/2000/svg' viewBox='0 0 16 16'><path fill-rule='evenodd' d='M10.146 4.646a.5.5 0 0 1 .708 0l2.646 2.647-2.646 2.646a.5.5 0 0 1-.708-.707L11.293 8H2a.5.5 0 0 1 0-1h9.293L10.146 5.354a.5.5 0 0 1 0-.708z'/></svg><br>or<br><svg class='left-arrow' style='width: 48px; height: 48px;' xmlns='http://www.w3.org/2000/svg' viewBox='0 0 16 16'><path fill-rule='evenodd' d='M5.854 4.646a.5.5 0 0 0-.708 0L2.5 7.293l2.646 2.647a.5.5 0 0 0 .708-.707L4.707 8H14a.5.5 0 0 0 0-1H4.707l1.147-1.146a.5.5 0 0 0 0-.708z'/></svg>Press the <b>Left Arrow</b> on your keyboard to skip the trial</p>\n</div>\n",
    "response": "ArrowLeft",
    "trial_type": "html-keyboard-response",
    "trial_index": 90,
    "plugin_version": null,
    "time_elapsed": 218325,
    "accepted": false
  },
  {
    "task": "accept",
    "reward": 0.12,
    "bounds": [71.73027823530668, 91.73027823530668],
    "originalBounds": [70, 90],
    "delay": [0, 0],
    "rt": 848,
    "stimulus": "\n<div\n  id=\"acceptance-container\"\n  style=\"display: flex; flex-direction: column; justify-content: center; align-items: center; height: 100%;\"\n>\n  <div\n    id=\"thermometer-container\"\n    style=\"display: flex; justify-content: center; align-items: center; height: 300px; width: 100px; border: 1px solid #000; margin-bottom: 10px; box-sizing: border-box;\"\n  >\n    <div\n      id=\"thermometer\"\n      style=\"position: relative; width: 100%; height: 100%; background-color: #e0e0e0; box-sizing: border-box;\"\n    >\n      <div\n        id=\"blue-area\"\n        style=\"position: absolute; bottom: 71.73027823530668%; height: 20%; width: 100%; background-color: blue;\"\n      ></div>\n      <div\n        id=\"lower-bound\"\n        style=\"position: absolute; bottom: 71.73027823530668%; width: 100%; height: 2px; background-color: black;\"\n      ></div>\n      <div\n        id=\"upper-bound\"\n        style=\"position: absolute; bottom: 91.73027823530668%; width: 100%; height: 2px; background-color: black;\"\n      ></div>\n    </div>\n  </div>\n  <p style=\"text-align: center;\">Reward:  CHF 0.12</p>\n  <p style=\"text-align: center;\"><br>Press the <b>Right Arrow</b> on your keyboard to accept the trial <svg class='right-arrow' style='width: 48px; height: 48px;'xmlns='http://www.w3.org/2000/svg' viewBox='0 0 16 16'><path fill-rule='evenodd' d='M10.146 4.646a.5.5 0 0 1 .708 0l2.646 2.647-2.646 2.646a.5.5 0 0 1-.708-.707L11.293 8H2a.5.5 0 0 1 0-1h9.293L10.146 5.354a.5.5 0 0 1 0-.708z'/></svg><br>or<br><svg class='left-arrow' style='width: 48px; height: 48px;' xmlns='http://www.w3.org/2000/svg' viewBox='0 0 16 16'><path fill-rule='evenodd' d='M5.854 4.646a.5.5 0 0 0-.708 0L2.5 7.293l2.646 2.647a.5.5 0 0 0 .708-.707L4.707 8H14a.5.5 0 0 0 0-1H4.707l1.147-1.146a.5.5 0 0 0 0-.708z'/></svg>Press the <b>Left Arrow</b> on your keyboard to skip the trial</p>\n</div>\n",
    "response": "ArrowRight",
    "trial_type": "html-keyboard-response",
    "trial_index": 92,
    "plugin_version": null,
    "time_elapsed": 219173,
    "accepted": true
  },
  {
    "blockType": "sync",
    "task": "block",
    "randomDelay": [0, 0],
    "bounds": [71.73027823530668, 91.73027823530668],
    "reward": 0.12,
    "tapCount": 0,
    "startTime": 0,
    "endTime": 0,
    "mercuryHeight": 0,
    "error": "",
    "errorOccurred": false,
    "keysReleasedFlag": false,
    "success": true,
    "keyTappedEarlyFlag": false,
    "keysState": { "a": true, "w": true, "e": true },
    "trial_type": "task-plugin",
    "trial_index": 93,
    "plugin_version": "1.0",
    "time_elapsed": 219173,
    "medianTaps": { "calibrationPart1Median": 21, "calibrationPart2Median": 25 }
  },
  {
    "task": "success",
    "success": true,
    "trial_type": "success-screen-plugin",
    "trial_index": 95,
    "plugin_version": null,
    "time_elapsed": 219696
  },
  {
    "trial_type": "html-keyboard-response",
    "trial_index": 96,
    "plugin_version": null,
    "time_elapsed": 220020
  },
  {
    "task": "accept",
    "reward": 0.03,
    "bounds": [32.02940138112104, 52.02940138112104],
    "originalBounds": [30, 50],
    "delay": [0, 0],
    "rt": 679,
    "stimulus": "\n<div\n  id=\"acceptance-container\"\n  style=\"display: flex; flex-direction: column; justify-content: center; align-items: center; height: 100%;\"\n>\n  <div\n    id=\"thermometer-container\"\n    style=\"display: flex; justify-content: center; align-items: center; height: 300px; width: 100px; border: 1px solid #000; margin-bottom: 10px; box-sizing: border-box;\"\n  >\n    <div\n      id=\"thermometer\"\n      style=\"position: relative; width: 100%; height: 100%; background-color: #e0e0e0; box-sizing: border-box;\"\n    >\n      <div\n        id=\"blue-area\"\n        style=\"position: absolute; bottom: 32.02940138112104%; height: 20%; width: 100%; background-color: blue;\"\n      ></div>\n      <div\n        id=\"lower-bound\"\n        style=\"position: absolute; bottom: 32.02940138112104%; width: 100%; height: 2px; background-color: black;\"\n      ></div>\n      <div\n        id=\"upper-bound\"\n        style=\"position: absolute; bottom: 52.02940138112104%; width: 100%; height: 2px; background-color: black;\"\n      ></div>\n    </div>\n  </div>\n  <p style=\"text-align: center;\">Reward:  CHF 0.03</p>\n  <p style=\"text-align: center;\"><br>Press the <b>Right Arrow</b> on your keyboard to accept the trial <svg class='right-arrow' style='width: 48px; height: 48px;'xmlns='http://www.w3.org/2000/svg' viewBox='0 0 16 16'><path fill-rule='evenodd' d='M10.146 4.646a.5.5 0 0 1 .708 0l2.646 2.647-2.646 2.646a.5.5 0 0 1-.708-.707L11.293 8H2a.5.5 0 0 1 0-1h9.293L10.146 5.354a.5.5 0 0 1 0-.708z'/></svg><br>or<br><svg class='left-arrow' style='width: 48px; height: 48px;' xmlns='http://www.w3.org/2000/svg' viewBox='0 0 16 16'><path fill-rule='evenodd' d='M5.854 4.646a.5.5 0 0 0-.708 0L2.5 7.293l2.646 2.647a.5.5 0 0 0 .708-.707L4.707 8H14a.5.5 0 0 0 0-1H4.707l1.147-1.146a.5.5 0 0 0 0-.708z'/></svg>Press the <b>Left Arrow</b> on your keyboard to skip the trial</p>\n</div>\n",
    "response": "ArrowLeft",
    "trial_type": "html-keyboard-response",
    "trial_index": 98,
    "plugin_version": null,
    "time_elapsed": 220700,
    "accepted": false
  },
  {
    "task": "accept",
    "reward": 0.05,
    "bounds": [70.74814388962051, 90.74814388962051],
    "originalBounds": [70, 90],
    "delay": [0, 0],
    "rt": 666,
    "stimulus": "\n<div\n  id=\"acceptance-container\"\n  style=\"display: flex; flex-direction: column; justify-content: center; align-items: center; height: 100%;\"\n>\n  <div\n    id=\"thermometer-container\"\n    style=\"display: flex; justify-content: center; align-items: center; height: 300px; width: 100px; border: 1px solid #000; margin-bottom: 10px; box-sizing: border-box;\"\n  >\n    <div\n      id=\"thermometer\"\n      style=\"position: relative; width: 100%; height: 100%; background-color: #e0e0e0; box-sizing: border-box;\"\n    >\n      <div\n        id=\"blue-area\"\n        style=\"position: absolute; bottom: 70.74814388962051%; height: 20%; width: 100%; background-color: blue;\"\n      ></div>\n      <div\n        id=\"lower-bound\"\n        style=\"position: absolute; bottom: 70.74814388962051%; width: 100%; height: 2px; background-color: black;\"\n      ></div>\n      <div\n        id=\"upper-bound\"\n        style=\"position: absolute; bottom: 90.74814388962051%; width: 100%; height: 2px; background-color: black;\"\n      ></div>\n    </div>\n  </div>\n  <p style=\"text-align: center;\">Reward:  CHF 0.05</p>\n  <p style=\"text-align: center;\"><br>Press the <b>Right Arrow</b> on your keyboard to accept the trial <svg class='right-arrow' style='width: 48px; height: 48px;'xmlns='http://www.w3.org/2000/svg' viewBox='0 0 16 16'><path fill-rule='evenodd' d='M10.146 4.646a.5.5 0 0 1 .708 0l2.646 2.647-2.646 2.646a.5.5 0 0 1-.708-.707L11.293 8H2a.5.5 0 0 1 0-1h9.293L10.146 5.354a.5.5 0 0 1 0-.708z'/></svg><br>or<br><svg class='left-arrow' style='width: 48px; height: 48px;' xmlns='http://www.w3.org/2000/svg' viewBox='0 0 16 16'><path fill-rule='evenodd' d='M5.854 4.646a.5.5 0 0 0-.708 0L2.5 7.293l2.646 2.647a.5.5 0 0 0 .708-.707L4.707 8H14a.5.5 0 0 0 0-1H4.707l1.147-1.146a.5.5 0 0 0 0-.708z'/></svg>Press the <b>Left Arrow</b> on your keyboard to skip the trial</p>\n</div>\n",
    "response": "ArrowLeft",
    "trial_type": "html-keyboard-response",
    "trial_index": 100,
    "plugin_version": null,
    "time_elapsed": 221367,
    "accepted": false
  },
  {
    "task": "accept",
    "reward": 0.06,
    "bounds": [29.68257271927711, 49.68257271927711],
    "originalBounds": [30, 50],
    "delay": [0, 0],
    "rt": 765,
    "stimulus": "\n<div\n  id=\"acceptance-container\"\n  style=\"display: flex; flex-direction: column; justify-content: center; align-items: center; height: 100%;\"\n>\n  <div\n    id=\"thermometer-container\"\n    style=\"display: flex; justify-content: center; align-items: center; height: 300px; width: 100px; border: 1px solid #000; margin-bottom: 10px; box-sizing: border-box;\"\n  >\n    <div\n      id=\"thermometer\"\n      style=\"position: relative; width: 100%; height: 100%; background-color: #e0e0e0; box-sizing: border-box;\"\n    >\n      <div\n        id=\"blue-area\"\n        style=\"position: absolute; bottom: 29.68257271927711%; height: 20%; width: 100%; background-color: blue;\"\n      ></div>\n      <div\n        id=\"lower-bound\"\n        style=\"position: absolute; bottom: 29.68257271927711%; width: 100%; height: 2px; background-color: black;\"\n      ></div>\n      <div\n        id=\"upper-bound\"\n        style=\"position: absolute; bottom: 49.68257271927711%; width: 100%; height: 2px; background-color: black;\"\n      ></div>\n    </div>\n  </div>\n  <p style=\"text-align: center;\">Reward:  CHF 0.06</p>\n  <p style=\"text-align: center;\"><br>Press the <b>Right Arrow</b> on your keyboard to accept the trial <svg class='right-arrow' style='width: 48px; height: 48px;'xmlns='http://www.w3.org/2000/svg' viewBox='0 0 16 16'><path fill-rule='evenodd' d='M10.146 4.646a.5.5 0 0 1 .708 0l2.646 2.647-2.646 2.646a.5.5 0 0 1-.708-.707L11.293 8H2a.5.5 0 0 1 0-1h9.293L10.146 5.354a.5.5 0 0 1 0-.708z'/></svg><br>or<br><svg class='left-arrow' style='width: 48px; height: 48px;' xmlns='http://www.w3.org/2000/svg' viewBox='0 0 16 16'><path fill-rule='evenodd' d='M5.854 4.646a.5.5 0 0 0-.708 0L2.5 7.293l2.646 2.647a.5.5 0 0 0 .708-.707L4.707 8H14a.5.5 0 0 0 0-1H4.707l1.147-1.146a.5.5 0 0 0 0-.708z'/></svg>Press the <b>Left Arrow</b> on your keyboard to skip the trial</p>\n</div>\n",
    "response": "ArrowLeft",
    "trial_type": "html-keyboard-response",
    "trial_index": 102,
    "plugin_version": null,
    "time_elapsed": 222134,
    "accepted": false
  },
  {
    "task": "accept",
    "reward": 0.05,
    "bounds": [46.35777263208042, 66.35777263208041],
    "originalBounds": [50, 70],
    "delay": [0, 0],
    "rt": 681,
    "stimulus": "\n<div\n  id=\"acceptance-container\"\n  style=\"display: flex; flex-direction: column; justify-content: center; align-items: center; height: 100%;\"\n>\n  <div\n    id=\"thermometer-container\"\n    style=\"display: flex; justify-content: center; align-items: center; height: 300px; width: 100px; border: 1px solid #000; margin-bottom: 10px; box-sizing: border-box;\"\n  >\n    <div\n      id=\"thermometer\"\n      style=\"position: relative; width: 100%; height: 100%; background-color: #e0e0e0; box-sizing: border-box;\"\n    >\n      <div\n        id=\"blue-area\"\n        style=\"position: absolute; bottom: 46.35777263208042%; height: 19.999999999999993%; width: 100%; background-color: blue;\"\n      ></div>\n      <div\n        id=\"lower-bound\"\n        style=\"position: absolute; bottom: 46.35777263208042%; width: 100%; height: 2px; background-color: black;\"\n      ></div>\n      <div\n        id=\"upper-bound\"\n        style=\"position: absolute; bottom: 66.35777263208041%; width: 100%; height: 2px; background-color: black;\"\n      ></div>\n    </div>\n  </div>\n  <p style=\"text-align: center;\">Reward:  CHF 0.05</p>\n  <p style=\"text-align: center;\"><br>Press the <b>Right Arrow</b> on your keyboard to accept the trial <svg class='right-arrow' style='width: 48px; height: 48px;'xmlns='http://www.w3.org/2000/svg' viewBox='0 0 16 16'><path fill-rule='evenodd' d='M10.146 4.646a.5.5 0 0 1 .708 0l2.646 2.647-2.646 2.646a.5.5 0 0 1-.708-.707L11.293 8H2a.5.5 0 0 1 0-1h9.293L10.146 5.354a.5.5 0 0 1 0-.708z'/></svg><br>or<br><svg class='left-arrow' style='width: 48px; height: 48px;' xmlns='http://www.w3.org/2000/svg' viewBox='0 0 16 16'><path fill-rule='evenodd' d='M5.854 4.646a.5.5 0 0 0-.708 0L2.5 7.293l2.646 2.647a.5.5 0 0 0 .708-.707L4.707 8H14a.5.5 0 0 0 0-1H4.707l1.147-1.146a.5.5 0 0 0 0-.708z'/></svg>Press the <b>Left Arrow</b> on your keyboard to skip the trial</p>\n</div>\n",
    "response": "ArrowLeft",
    "trial_type": "html-keyboard-response",
    "trial_index": 104,
    "plugin_version": null,
    "time_elapsed": 222815,
    "accepted": false
  },
  {
    "task": "accept",
    "reward": 0.03,
    "bounds": [74.5508023570967, 94.5508023570967],
    "originalBounds": [70, 90],
    "delay": [0, 0],
    "rt": 740,
    "stimulus": "\n<div\n  id=\"acceptance-container\"\n  style=\"display: flex; flex-direction: column; justify-content: center; align-items: center; height: 100%;\"\n>\n  <div\n    id=\"thermometer-container\"\n    style=\"display: flex; justify-content: center; align-items: center; height: 300px; width: 100px; border: 1px solid #000; margin-bottom: 10px; box-sizing: border-box;\"\n  >\n    <div\n      id=\"thermometer\"\n      style=\"position: relative; width: 100%; height: 100%; background-color: #e0e0e0; box-sizing: border-box;\"\n    >\n      <div\n        id=\"blue-area\"\n        style=\"position: absolute; bottom: 74.5508023570967%; height: 20%; width: 100%; background-color: blue;\"\n      ></div>\n      <div\n        id=\"lower-bound\"\n        style=\"position: absolute; bottom: 74.5508023570967%; width: 100%; height: 2px; background-color: black;\"\n      ></div>\n      <div\n        id=\"upper-bound\"\n        style=\"position: absolute; bottom: 94.5508023570967%; width: 100%; height: 2px; background-color: black;\"\n      ></div>\n    </div>\n  </div>\n  <p style=\"text-align: center;\">Reward:  CHF 0.03</p>\n  <p style=\"text-align: center;\"><br>Press the <b>Right Arrow</b> on your keyboard to accept the trial <svg class='right-arrow' style='width: 48px; height: 48px;'xmlns='http://www.w3.org/2000/svg' viewBox='0 0 16 16'><path fill-rule='evenodd' d='M10.146 4.646a.5.5 0 0 1 .708 0l2.646 2.647-2.646 2.646a.5.5 0 0 1-.708-.707L11.293 8H2a.5.5 0 0 1 0-1h9.293L10.146 5.354a.5.5 0 0 1 0-.708z'/></svg><br>or<br><svg class='left-arrow' style='width: 48px; height: 48px;' xmlns='http://www.w3.org/2000/svg' viewBox='0 0 16 16'><path fill-rule='evenodd' d='M5.854 4.646a.5.5 0 0 0-.708 0L2.5 7.293l2.646 2.647a.5.5 0 0 0 .708-.707L4.707 8H14a.5.5 0 0 0 0-1H4.707l1.147-1.146a.5.5 0 0 0 0-.708z'/></svg>Press the <b>Left Arrow</b> on your keyboard to skip the trial</p>\n</div>\n",
    "response": "ArrowLeft",
    "trial_type": "html-keyboard-response",
    "trial_index": 106,
    "plugin_version": null,
    "time_elapsed": 223556,
    "accepted": false
  },
  {
    "task": "accept",
    "reward": 0.1,
    "bounds": [53.96684636564807, 73.96684636564807],
    "originalBounds": [50, 70],
    "delay": [0, 0],
    "rt": 835,
    "stimulus": "\n<div\n  id=\"acceptance-container\"\n  style=\"display: flex; flex-direction: column; justify-content: center; align-items: center; height: 100%;\"\n>\n  <div\n    id=\"thermometer-container\"\n    style=\"display: flex; justify-content: center; align-items: center; height: 300px; width: 100px; border: 1px solid #000; margin-bottom: 10px; box-sizing: border-box;\"\n  >\n    <div\n      id=\"thermometer\"\n      style=\"position: relative; width: 100%; height: 100%; background-color: #e0e0e0; box-sizing: border-box;\"\n    >\n      <div\n        id=\"blue-area\"\n        style=\"position: absolute; bottom: 53.96684636564807%; height: 20%; width: 100%; background-color: blue;\"\n      ></div>\n      <div\n        id=\"lower-bound\"\n        style=\"position: absolute; bottom: 53.96684636564807%; width: 100%; height: 2px; background-color: black;\"\n      ></div>\n      <div\n        id=\"upper-bound\"\n        style=\"position: absolute; bottom: 73.96684636564807%; width: 100%; height: 2px; background-color: black;\"\n      ></div>\n    </div>\n  </div>\n  <p style=\"text-align: center;\">Reward:  CHF 0.10</p>\n  <p style=\"text-align: center;\"><br>Press the <b>Right Arrow</b> on your keyboard to accept the trial <svg class='right-arrow' style='width: 48px; height: 48px;'xmlns='http://www.w3.org/2000/svg' viewBox='0 0 16 16'><path fill-rule='evenodd' d='M10.146 4.646a.5.5 0 0 1 .708 0l2.646 2.647-2.646 2.646a.5.5 0 0 1-.708-.707L11.293 8H2a.5.5 0 0 1 0-1h9.293L10.146 5.354a.5.5 0 0 1 0-.708z'/></svg><br>or<br><svg class='left-arrow' style='width: 48px; height: 48px;' xmlns='http://www.w3.org/2000/svg' viewBox='0 0 16 16'><path fill-rule='evenodd' d='M5.854 4.646a.5.5 0 0 0-.708 0L2.5 7.293l2.646 2.647a.5.5 0 0 0 .708-.707L4.707 8H14a.5.5 0 0 0 0-1H4.707l1.147-1.146a.5.5 0 0 0 0-.708z'/></svg>Press the <b>Left Arrow</b> on your keyboard to skip the trial</p>\n</div>\n",
    "response": "ArrowRight",
    "trial_type": "html-keyboard-response",
    "trial_index": 108,
    "plugin_version": null,
    "time_elapsed": 224392,
    "accepted": true
  },
  {
    "blockType": "sync",
    "task": "block",
    "randomDelay": [0, 0],
    "bounds": [53.96684636564807, 73.96684636564807],
    "reward": 0.1,
    "tapCount": 0,
    "startTime": 0,
    "endTime": 0,
    "mercuryHeight": 0,
    "error": "",
    "errorOccurred": false,
    "keysReleasedFlag": false,
    "success": true,
    "keyTappedEarlyFlag": false,
    "keysState": { "a": true, "w": true, "e": true },
    "trial_type": "task-plugin",
    "trial_index": 109,
    "plugin_version": "1.0",
    "time_elapsed": 224393,
    "medianTaps": { "calibrationPart1Median": 21, "calibrationPart2Median": 25 }
  },
  {
    "task": "success",
    "success": true,
    "trial_type": "success-screen-plugin",
    "trial_index": 111,
    "plugin_version": null,
    "time_elapsed": 224904
  },
  {
    "trial_type": "html-keyboard-response",
    "trial_index": 112,
    "plugin_version": null,
    "time_elapsed": 225121
  },
  {
    "task": "accept",
    "reward": 0.11,
    "bounds": [31.0642182611753, 51.0642182611753],
    "originalBounds": [30, 50],
    "delay": [0, 0],
    "rt": 1706,
    "stimulus": "\n<div\n  id=\"acceptance-container\"\n  style=\"display: flex; flex-direction: column; justify-content: center; align-items: center; height: 100%;\"\n>\n  <div\n    id=\"thermometer-container\"\n    style=\"display: flex; justify-content: center; align-items: center; height: 300px; width: 100px; border: 1px solid #000; margin-bottom: 10px; box-sizing: border-box;\"\n  >\n    <div\n      id=\"thermometer\"\n      style=\"position: relative; width: 100%; height: 100%; background-color: #e0e0e0; box-sizing: border-box;\"\n    >\n      <div\n        id=\"blue-area\"\n        style=\"position: absolute; bottom: 31.0642182611753%; height: 20%; width: 100%; background-color: blue;\"\n      ></div>\n      <div\n        id=\"lower-bound\"\n        style=\"position: absolute; bottom: 31.0642182611753%; width: 100%; height: 2px; background-color: black;\"\n      ></div>\n      <div\n        id=\"upper-bound\"\n        style=\"position: absolute; bottom: 51.0642182611753%; width: 100%; height: 2px; background-color: black;\"\n      ></div>\n    </div>\n  </div>\n  <p style=\"text-align: center;\">Reward:  CHF 0.11</p>\n  <p style=\"text-align: center;\"><br>Press the <b>Right Arrow</b> on your keyboard to accept the trial <svg class='right-arrow' style='width: 48px; height: 48px;'xmlns='http://www.w3.org/2000/svg' viewBox='0 0 16 16'><path fill-rule='evenodd' d='M10.146 4.646a.5.5 0 0 1 .708 0l2.646 2.647-2.646 2.646a.5.5 0 0 1-.708-.707L11.293 8H2a.5.5 0 0 1 0-1h9.293L10.146 5.354a.5.5 0 0 1 0-.708z'/></svg><br>or<br><svg class='left-arrow' style='width: 48px; height: 48px;' xmlns='http://www.w3.org/2000/svg' viewBox='0 0 16 16'><path fill-rule='evenodd' d='M5.854 4.646a.5.5 0 0 0-.708 0L2.5 7.293l2.646 2.647a.5.5 0 0 0 .708-.707L4.707 8H14a.5.5 0 0 0 0-1H4.707l1.147-1.146a.5.5 0 0 0 0-.708z'/></svg>Press the <b>Left Arrow</b> on your keyboard to skip the trial</p>\n</div>\n",
    "response": "ArrowRight",
    "trial_type": "html-keyboard-response",
    "trial_index": 114,
    "plugin_version": null,
    "time_elapsed": 226829,
    "accepted": true
  },
  {
    "task": "countdown",
    "keyTappedEarlyFlag": false,
    "trial_type": "countdown-trial",
    "trial_index": 115,
    "plugin_version": "1.0",
    "time_elapsed": 231065
  },
  {
    "blockType": "sync",
    "task": "block",
    "randomDelay": [0, 0],
    "bounds": [31.0642182611753, 51.0642182611753],
    "reward": 0.11,
    "tapCount": 18,
    "startTime": 231066,
    "endTime": 238067,
    "mercuryHeight": 44.80000000000002,
    "error": "",
    "errorOccurred": false,
    "keysReleasedFlag": false,
    "success": true,
    "keyTappedEarlyFlag": false,
    "keysState": { "a": true, "w": true, "e": true },
    "trial_type": "task-plugin",
    "trial_index": 116,
    "plugin_version": "1.0",
    "time_elapsed": 238067,
    "medianTaps": { "calibrationPart1Median": 21, "calibrationPart2Median": 25 }
  },
  {
    "errorOccurred": false,
    "trial_type": "release-keys",
    "trial_index": 117,
    "plugin_version": "1.0",
    "time_elapsed": 238571
  },
  {
    "task": "success",
    "success": true,
    "trial_type": "success-screen-plugin",
    "trial_index": 118,
    "plugin_version": null,
    "time_elapsed": 239076
  },
  {
    "trial_type": "html-keyboard-response",
    "trial_index": 120,
    "plugin_version": null,
    "time_elapsed": 242718
  },
  {
    "task": "accept",
    "reward": 0.03,
    "bounds": [26.096898443407163, 46.09689844340716],
    "originalBounds": [30, 50],
    "delay": [0, 0],
    "rt": 597,
    "stimulus": "\n<div\n  id=\"acceptance-container\"\n  style=\"display: flex; flex-direction: column; justify-content: center; align-items: center; height: 100%;\"\n>\n  <div\n    id=\"thermometer-container\"\n    style=\"display: flex; justify-content: center; align-items: center; height: 300px; width: 100px; border: 1px solid #000; margin-bottom: 10px; box-sizing: border-box;\"\n  >\n    <div\n      id=\"thermometer\"\n      style=\"position: relative; width: 100%; height: 100%; background-color: #e0e0e0; box-sizing: border-box;\"\n    >\n      <div\n        id=\"blue-area\"\n        style=\"position: absolute; bottom: 26.096898443407163%; height: 20%; width: 100%; background-color: blue;\"\n      ></div>\n      <div\n        id=\"lower-bound\"\n        style=\"position: absolute; bottom: 26.096898443407163%; width: 100%; height: 2px; background-color: black;\"\n      ></div>\n      <div\n        id=\"upper-bound\"\n        style=\"position: absolute; bottom: 46.09689844340716%; width: 100%; height: 2px; background-color: black;\"\n      ></div>\n    </div>\n  </div>\n  <p style=\"text-align: center;\">Reward:  CHF 0.03</p>\n  <p style=\"text-align: center;\"><br>Press the <b>Right Arrow</b> on your keyboard to accept the trial <svg class='right-arrow' style='width: 48px; height: 48px;'xmlns='http://www.w3.org/2000/svg' viewBox='0 0 16 16'><path fill-rule='evenodd' d='M10.146 4.646a.5.5 0 0 1 .708 0l2.646 2.647-2.646 2.646a.5.5 0 0 1-.708-.707L11.293 8H2a.5.5 0 0 1 0-1h9.293L10.146 5.354a.5.5 0 0 1 0-.708z'/></svg><br>or<br><svg class='left-arrow' style='width: 48px; height: 48px;' xmlns='http://www.w3.org/2000/svg' viewBox='0 0 16 16'><path fill-rule='evenodd' d='M5.854 4.646a.5.5 0 0 0-.708 0L2.5 7.293l2.646 2.647a.5.5 0 0 0 .708-.707L4.707 8H14a.5.5 0 0 0 0-1H4.707l1.147-1.146a.5.5 0 0 0 0-.708z'/></svg>Press the <b>Left Arrow</b> on your keyboard to skip the trial</p>\n</div>\n",
    "response": "ArrowLeft",
    "trial_type": "html-keyboard-response",
    "trial_index": 121,
    "plugin_version": null,
    "time_elapsed": 243316,
    "accepted": false
  },
  {
    "task": "accept",
    "reward": 0.11,
    "bounds": [74.36274870150905, 94.36274870150905],
    "originalBounds": [70, 90],
    "delay": [0, 0],
    "rt": 571,
    "stimulus": "\n<div\n  id=\"acceptance-container\"\n  style=\"display: flex; flex-direction: column; justify-content: center; align-items: center; height: 100%;\"\n>\n  <div\n    id=\"thermometer-container\"\n    style=\"display: flex; justify-content: center; align-items: center; height: 300px; width: 100px; border: 1px solid #000; margin-bottom: 10px; box-sizing: border-box;\"\n  >\n    <div\n      id=\"thermometer\"\n      style=\"position: relative; width: 100%; height: 100%; background-color: #e0e0e0; box-sizing: border-box;\"\n    >\n      <div\n        id=\"blue-area\"\n        style=\"position: absolute; bottom: 74.36274870150905%; height: 20%; width: 100%; background-color: blue;\"\n      ></div>\n      <div\n        id=\"lower-bound\"\n        style=\"position: absolute; bottom: 74.36274870150905%; width: 100%; height: 2px; background-color: black;\"\n      ></div>\n      <div\n        id=\"upper-bound\"\n        style=\"position: absolute; bottom: 94.36274870150905%; width: 100%; height: 2px; background-color: black;\"\n      ></div>\n    </div>\n  </div>\n  <p style=\"text-align: center;\">Reward:  CHF 0.11</p>\n  <p style=\"text-align: center;\"><br>Press the <b>Right Arrow</b> on your keyboard to accept the trial <svg class='right-arrow' style='width: 48px; height: 48px;'xmlns='http://www.w3.org/2000/svg' viewBox='0 0 16 16'><path fill-rule='evenodd' d='M10.146 4.646a.5.5 0 0 1 .708 0l2.646 2.647-2.646 2.646a.5.5 0 0 1-.708-.707L11.293 8H2a.5.5 0 0 1 0-1h9.293L10.146 5.354a.5.5 0 0 1 0-.708z'/></svg><br>or<br><svg class='left-arrow' style='width: 48px; height: 48px;' xmlns='http://www.w3.org/2000/svg' viewBox='0 0 16 16'><path fill-rule='evenodd' d='M5.854 4.646a.5.5 0 0 0-.708 0L2.5 7.293l2.646 2.647a.5.5 0 0 0 .708-.707L4.707 8H14a.5.5 0 0 0 0-1H4.707l1.147-1.146a.5.5 0 0 0 0-.708z'/></svg>Press the <b>Left Arrow</b> on your keyboard to skip the trial</p>\n</div>\n",
    "response": "ArrowRight",
    "trial_type": "html-keyboard-response",
    "trial_index": 123,
    "plugin_version": null,
    "time_elapsed": 243888,
    "accepted": true
  },
  {
    "blockType": "sync",
    "task": "block",
    "randomDelay": [0, 0],
    "bounds": [74.36274870150905, 94.36274870150905],
    "reward": 0.11,
    "tapCount": 0,
    "startTime": 0,
    "endTime": 0,
    "mercuryHeight": 0,
    "error": "",
    "errorOccurred": false,
    "keysReleasedFlag": false,
    "success": true,
    "keyTappedEarlyFlag": false,
    "keysState": { "a": true, "w": true, "e": true },
    "trial_type": "task-plugin",
    "trial_index": 124,
    "plugin_version": "1.0",
    "time_elapsed": 243889,
    "medianTaps": { "calibrationPart1Median": 21, "calibrationPart2Median": 25 }
  },
  {
    "task": "success",
    "success": true,
    "trial_type": "success-screen-plugin",
    "trial_index": 126,
    "plugin_version": null,
    "time_elapsed": 244409
  },
  {
    "trial_type": "html-keyboard-response",
    "trial_index": 127,
    "plugin_version": null,
    "time_elapsed": 244620
  },
  {
    "task": "accept",
    "reward": 0.03,
    "bounds": [46.341009453935776, 66.34100945393578],
    "originalBounds": [50, 70],
    "delay": [0, 0],
    "rt": 1603,
    "stimulus": "\n<div\n  id=\"acceptance-container\"\n  style=\"display: flex; flex-direction: column; justify-content: center; align-items: center; height: 100%;\"\n>\n  <div\n    id=\"thermometer-container\"\n    style=\"display: flex; justify-content: center; align-items: center; height: 300px; width: 100px; border: 1px solid #000; margin-bottom: 10px; box-sizing: border-box;\"\n  >\n    <div\n      id=\"thermometer\"\n      style=\"position: relative; width: 100%; height: 100%; background-color: #e0e0e0; box-sizing: border-box;\"\n    >\n      <div\n        id=\"blue-area\"\n        style=\"position: absolute; bottom: 46.341009453935776%; height: 20.000000000000007%; width: 100%; background-color: blue;\"\n      ></div>\n      <div\n        id=\"lower-bound\"\n        style=\"position: absolute; bottom: 46.341009453935776%; width: 100%; height: 2px; background-color: black;\"\n      ></div>\n      <div\n        id=\"upper-bound\"\n        style=\"position: absolute; bottom: 66.34100945393578%; width: 100%; height: 2px; background-color: black;\"\n      ></div>\n    </div>\n  </div>\n  <p style=\"text-align: center;\">Reward:  CHF 0.03</p>\n  <p style=\"text-align: center;\"><br>Press the <b>Right Arrow</b> on your keyboard to accept the trial <svg class='right-arrow' style='width: 48px; height: 48px;'xmlns='http://www.w3.org/2000/svg' viewBox='0 0 16 16'><path fill-rule='evenodd' d='M10.146 4.646a.5.5 0 0 1 .708 0l2.646 2.647-2.646 2.646a.5.5 0 0 1-.708-.707L11.293 8H2a.5.5 0 0 1 0-1h9.293L10.146 5.354a.5.5 0 0 1 0-.708z'/></svg><br>or<br><svg class='left-arrow' style='width: 48px; height: 48px;' xmlns='http://www.w3.org/2000/svg' viewBox='0 0 16 16'><path fill-rule='evenodd' d='M5.854 4.646a.5.5 0 0 0-.708 0L2.5 7.293l2.646 2.647a.5.5 0 0 0 .708-.707L4.707 8H14a.5.5 0 0 0 0-1H4.707l1.147-1.146a.5.5 0 0 0 0-.708z'/></svg>Press the <b>Left Arrow</b> on your keyboard to skip the trial</p>\n</div>\n",
    "response": "ArrowLeft",
    "trial_type": "html-keyboard-response",
    "trial_index": 129,
    "plugin_version": null,
    "time_elapsed": 246224,
    "accepted": false
  },
  {
    "task": "accept",
    "reward": 0.06,
    "bounds": [49.86343640925365, 69.86343640925365],
    "originalBounds": [50, 70],
    "delay": [0, 0],
    "rt": 737,
    "stimulus": "\n<div\n  id=\"acceptance-container\"\n  style=\"display: flex; flex-direction: column; justify-content: center; align-items: center; height: 100%;\"\n>\n  <div\n    id=\"thermometer-container\"\n    style=\"display: flex; justify-content: center; align-items: center; height: 300px; width: 100px; border: 1px solid #000; margin-bottom: 10px; box-sizing: border-box;\"\n  >\n    <div\n      id=\"thermometer\"\n      style=\"position: relative; width: 100%; height: 100%; background-color: #e0e0e0; box-sizing: border-box;\"\n    >\n      <div\n        id=\"blue-area\"\n        style=\"position: absolute; bottom: 49.86343640925365%; height: 20%; width: 100%; background-color: blue;\"\n      ></div>\n      <div\n        id=\"lower-bound\"\n        style=\"position: absolute; bottom: 49.86343640925365%; width: 100%; height: 2px; background-color: black;\"\n      ></div>\n      <div\n        id=\"upper-bound\"\n        style=\"position: absolute; bottom: 69.86343640925365%; width: 100%; height: 2px; background-color: black;\"\n      ></div>\n    </div>\n  </div>\n  <p style=\"text-align: center;\">Reward:  CHF 0.06</p>\n  <p style=\"text-align: center;\"><br>Press the <b>Right Arrow</b> on your keyboard to accept the trial <svg class='right-arrow' style='width: 48px; height: 48px;'xmlns='http://www.w3.org/2000/svg' viewBox='0 0 16 16'><path fill-rule='evenodd' d='M10.146 4.646a.5.5 0 0 1 .708 0l2.646 2.647-2.646 2.646a.5.5 0 0 1-.708-.707L11.293 8H2a.5.5 0 0 1 0-1h9.293L10.146 5.354a.5.5 0 0 1 0-.708z'/></svg><br>or<br><svg class='left-arrow' style='width: 48px; height: 48px;' xmlns='http://www.w3.org/2000/svg' viewBox='0 0 16 16'><path fill-rule='evenodd' d='M5.854 4.646a.5.5 0 0 0-.708 0L2.5 7.293l2.646 2.647a.5.5 0 0 0 .708-.707L4.707 8H14a.5.5 0 0 0 0-1H4.707l1.147-1.146a.5.5 0 0 0 0-.708z'/></svg>Press the <b>Left Arrow</b> on your keyboard to skip the trial</p>\n</div>\n",
    "response": "ArrowRight",
    "trial_type": "html-keyboard-response",
    "trial_index": 131,
    "plugin_version": null,
    "time_elapsed": 246962,
    "accepted": true
  },
  {
    "blockType": "sync",
    "task": "block",
    "randomDelay": [0, 0],
    "bounds": [49.86343640925365, 69.86343640925365],
    "reward": 0.06,
    "tapCount": 0,
    "startTime": 0,
    "endTime": 0,
    "mercuryHeight": 0,
    "error": "",
    "errorOccurred": false,
    "keysReleasedFlag": false,
    "success": true,
    "keyTappedEarlyFlag": false,
    "keysState": { "a": true, "w": true, "e": true },
    "trial_type": "task-plugin",
    "trial_index": 132,
    "plugin_version": "1.0",
    "time_elapsed": 246963,
    "medianTaps": { "calibrationPart1Median": 21, "calibrationPart2Median": 25 }
  },
  {
    "task": "success",
    "success": true,
    "trial_type": "success-screen-plugin",
    "trial_index": 134,
    "plugin_version": null,
    "time_elapsed": 247472
  },
  {
    "trial_type": "html-keyboard-response",
    "trial_index": 135,
    "plugin_version": null,
    "time_elapsed": 248101
  },
  {
    "task": "accept",
    "reward": 0.03,
    "bounds": [73.72948652507995, 93.72948652507995],
    "originalBounds": [70, 90],
    "delay": [0, 0],
    "rt": 824,
    "stimulus": "\n<div\n  id=\"acceptance-container\"\n  style=\"display: flex; flex-direction: column; justify-content: center; align-items: center; height: 100%;\"\n>\n  <div\n    id=\"thermometer-container\"\n    style=\"display: flex; justify-content: center; align-items: center; height: 300px; width: 100px; border: 1px solid #000; margin-bottom: 10px; box-sizing: border-box;\"\n  >\n    <div\n      id=\"thermometer\"\n      style=\"position: relative; width: 100%; height: 100%; background-color: #e0e0e0; box-sizing: border-box;\"\n    >\n      <div\n        id=\"blue-area\"\n        style=\"position: absolute; bottom: 73.72948652507995%; height: 20%; width: 100%; background-color: blue;\"\n      ></div>\n      <div\n        id=\"lower-bound\"\n        style=\"position: absolute; bottom: 73.72948652507995%; width: 100%; height: 2px; background-color: black;\"\n      ></div>\n      <div\n        id=\"upper-bound\"\n        style=\"position: absolute; bottom: 93.72948652507995%; width: 100%; height: 2px; background-color: black;\"\n      ></div>\n    </div>\n  </div>\n  <p style=\"text-align: center;\">Reward:  CHF 0.03</p>\n  <p style=\"text-align: center;\"><br>Press the <b>Right Arrow</b> on your keyboard to accept the trial <svg class='right-arrow' style='width: 48px; height: 48px;'xmlns='http://www.w3.org/2000/svg' viewBox='0 0 16 16'><path fill-rule='evenodd' d='M10.146 4.646a.5.5 0 0 1 .708 0l2.646 2.647-2.646 2.646a.5.5 0 0 1-.708-.707L11.293 8H2a.5.5 0 0 1 0-1h9.293L10.146 5.354a.5.5 0 0 1 0-.708z'/></svg><br>or<br><svg class='left-arrow' style='width: 48px; height: 48px;' xmlns='http://www.w3.org/2000/svg' viewBox='0 0 16 16'><path fill-rule='evenodd' d='M5.854 4.646a.5.5 0 0 0-.708 0L2.5 7.293l2.646 2.647a.5.5 0 0 0 .708-.707L4.707 8H14a.5.5 0 0 0 0-1H4.707l1.147-1.146a.5.5 0 0 0 0-.708z'/></svg>Press the <b>Left Arrow</b> on your keyboard to skip the trial</p>\n</div>\n",
    "response": "ArrowLeft",
    "trial_type": "html-keyboard-response",
    "trial_index": 137,
    "plugin_version": null,
    "time_elapsed": 248926,
    "accepted": false
  },
  {
    "task": "accept",
    "reward": 0.05,
    "bounds": [67.80345644595529, 87.80345644595529],
    "originalBounds": [70, 90],
    "delay": [0, 0],
    "rt": 825,
    "stimulus": "\n<div\n  id=\"acceptance-container\"\n  style=\"display: flex; flex-direction: column; justify-content: center; align-items: center; height: 100%;\"\n>\n  <div\n    id=\"thermometer-container\"\n    style=\"display: flex; justify-content: center; align-items: center; height: 300px; width: 100px; border: 1px solid #000; margin-bottom: 10px; box-sizing: border-box;\"\n  >\n    <div\n      id=\"thermometer\"\n      style=\"position: relative; width: 100%; height: 100%; background-color: #e0e0e0; box-sizing: border-box;\"\n    >\n      <div\n        id=\"blue-area\"\n        style=\"position: absolute; bottom: 67.80345644595529%; height: 20%; width: 100%; background-color: blue;\"\n      ></div>\n      <div\n        id=\"lower-bound\"\n        style=\"position: absolute; bottom: 67.80345644595529%; width: 100%; height: 2px; background-color: black;\"\n      ></div>\n      <div\n        id=\"upper-bound\"\n        style=\"position: absolute; bottom: 87.80345644595529%; width: 100%; height: 2px; background-color: black;\"\n      ></div>\n    </div>\n  </div>\n  <p style=\"text-align: center;\">Reward:  CHF 0.05</p>\n  <p style=\"text-align: center;\"><br>Press the <b>Right Arrow</b> on your keyboard to accept the trial <svg class='right-arrow' style='width: 48px; height: 48px;'xmlns='http://www.w3.org/2000/svg' viewBox='0 0 16 16'><path fill-rule='evenodd' d='M10.146 4.646a.5.5 0 0 1 .708 0l2.646 2.647-2.646 2.646a.5.5 0 0 1-.708-.707L11.293 8H2a.5.5 0 0 1 0-1h9.293L10.146 5.354a.5.5 0 0 1 0-.708z'/></svg><br>or<br><svg class='left-arrow' style='width: 48px; height: 48px;' xmlns='http://www.w3.org/2000/svg' viewBox='0 0 16 16'><path fill-rule='evenodd' d='M5.854 4.646a.5.5 0 0 0-.708 0L2.5 7.293l2.646 2.647a.5.5 0 0 0 .708-.707L4.707 8H14a.5.5 0 0 0 0-1H4.707l1.147-1.146a.5.5 0 0 0 0-.708z'/></svg>Press the <b>Left Arrow</b> on your keyboard to skip the trial</p>\n</div>\n",
    "response": "ArrowRight",
    "trial_type": "html-keyboard-response",
    "trial_index": 139,
    "plugin_version": null,
    "time_elapsed": 249752,
    "accepted": true
  },
  {
    "blockType": "sync",
    "task": "block",
    "randomDelay": [0, 0],
    "bounds": [67.80345644595529, 87.80345644595529],
    "reward": 0.05,
    "tapCount": 0,
    "startTime": 0,
    "endTime": 0,
    "mercuryHeight": 0,
    "error": "",
    "errorOccurred": false,
    "keysReleasedFlag": false,
    "success": true,
    "keyTappedEarlyFlag": false,
    "keysState": { "a": true, "w": true, "e": true },
    "trial_type": "task-plugin",
    "trial_index": 140,
    "plugin_version": "1.0",
    "time_elapsed": 249752,
    "medianTaps": { "calibrationPart1Median": 21, "calibrationPart2Median": 25 }
  },
  {
    "task": "success",
    "success": true,
    "trial_type": "success-screen-plugin",
    "trial_index": 142,
    "plugin_version": null,
    "time_elapsed": 250274
  },
  {
    "trial_type": "html-keyboard-response",
    "trial_index": 143,
    "plugin_version": null,
    "time_elapsed": 251015
  },
  {
    "task": "accept",
    "reward": 0.12,
    "bounds": [29.053180550335462, 49.05318055033546],
    "originalBounds": [30, 50],
    "delay": [0, 0],
    "rt": 563,
    "stimulus": "\n<div\n  id=\"acceptance-container\"\n  style=\"display: flex; flex-direction: column; justify-content: center; align-items: center; height: 100%;\"\n>\n  <div\n    id=\"thermometer-container\"\n    style=\"display: flex; justify-content: center; align-items: center; height: 300px; width: 100px; border: 1px solid #000; margin-bottom: 10px; box-sizing: border-box;\"\n  >\n    <div\n      id=\"thermometer\"\n      style=\"position: relative; width: 100%; height: 100%; background-color: #e0e0e0; box-sizing: border-box;\"\n    >\n      <div\n        id=\"blue-area\"\n        style=\"position: absolute; bottom: 29.053180550335462%; height: 20%; width: 100%; background-color: blue;\"\n      ></div>\n      <div\n        id=\"lower-bound\"\n        style=\"position: absolute; bottom: 29.053180550335462%; width: 100%; height: 2px; background-color: black;\"\n      ></div>\n      <div\n        id=\"upper-bound\"\n        style=\"position: absolute; bottom: 49.05318055033546%; width: 100%; height: 2px; background-color: black;\"\n      ></div>\n    </div>\n  </div>\n  <p style=\"text-align: center;\">Reward:  CHF 0.12</p>\n  <p style=\"text-align: center;\"><br>Press the <b>Right Arrow</b> on your keyboard to accept the trial <svg class='right-arrow' style='width: 48px; height: 48px;'xmlns='http://www.w3.org/2000/svg' viewBox='0 0 16 16'><path fill-rule='evenodd' d='M10.146 4.646a.5.5 0 0 1 .708 0l2.646 2.647-2.646 2.646a.5.5 0 0 1-.708-.707L11.293 8H2a.5.5 0 0 1 0-1h9.293L10.146 5.354a.5.5 0 0 1 0-.708z'/></svg><br>or<br><svg class='left-arrow' style='width: 48px; height: 48px;' xmlns='http://www.w3.org/2000/svg' viewBox='0 0 16 16'><path fill-rule='evenodd' d='M5.854 4.646a.5.5 0 0 0-.708 0L2.5 7.293l2.646 2.647a.5.5 0 0 0 .708-.707L4.707 8H14a.5.5 0 0 0 0-1H4.707l1.147-1.146a.5.5 0 0 0 0-.708z'/></svg>Press the <b>Left Arrow</b> on your keyboard to skip the trial</p>\n</div>\n",
    "response": "ArrowRight",
    "trial_type": "html-keyboard-response",
    "trial_index": 145,
    "plugin_version": null,
    "time_elapsed": 251579,
    "accepted": true
  },
  {
    "blockType": "sync",
    "task": "block",
    "randomDelay": [0, 0],
    "bounds": [29.053180550335462, 49.05318055033546],
    "reward": 0.12,
    "tapCount": 0,
    "startTime": 0,
    "endTime": 0,
    "mercuryHeight": 0,
    "error": "",
    "errorOccurred": false,
    "keysReleasedFlag": false,
    "success": true,
    "keyTappedEarlyFlag": false,
    "keysState": { "a": true, "w": true, "e": true },
    "trial_type": "task-plugin",
    "trial_index": 146,
    "plugin_version": "1.0",
    "time_elapsed": 251580,
    "medianTaps": { "calibrationPart1Median": 21, "calibrationPart2Median": 25 }
  },
  {
    "task": "success",
    "success": true,
    "trial_type": "success-screen-plugin",
    "trial_index": 148,
    "plugin_version": null,
    "time_elapsed": 252090
  },
  {
    "trial_type": "html-keyboard-response",
    "trial_index": 149,
    "plugin_version": null,
    "time_elapsed": 252714
  },
  {
    "task": "accept",
    "reward": 0.11,
    "bounds": [54.74276439077627, 74.74276439077627],
    "originalBounds": [50, 70],
    "delay": [0, 0],
    "rt": 612,
    "stimulus": "\n<div\n  id=\"acceptance-container\"\n  style=\"display: flex; flex-direction: column; justify-content: center; align-items: center; height: 100%;\"\n>\n  <div\n    id=\"thermometer-container\"\n    style=\"display: flex; justify-content: center; align-items: center; height: 300px; width: 100px; border: 1px solid #000; margin-bottom: 10px; box-sizing: border-box;\"\n  >\n    <div\n      id=\"thermometer\"\n      style=\"position: relative; width: 100%; height: 100%; background-color: #e0e0e0; box-sizing: border-box;\"\n    >\n      <div\n        id=\"blue-area\"\n        style=\"position: absolute; bottom: 54.74276439077627%; height: 20%; width: 100%; background-color: blue;\"\n      ></div>\n      <div\n        id=\"lower-bound\"\n        style=\"position: absolute; bottom: 54.74276439077627%; width: 100%; height: 2px; background-color: black;\"\n      ></div>\n      <div\n        id=\"upper-bound\"\n        style=\"position: absolute; bottom: 74.74276439077627%; width: 100%; height: 2px; background-color: black;\"\n      ></div>\n    </div>\n  </div>\n  <p style=\"text-align: center;\">Reward:  CHF 0.11</p>\n  <p style=\"text-align: center;\"><br>Press the <b>Right Arrow</b> on your keyboard to accept the trial <svg class='right-arrow' style='width: 48px; height: 48px;'xmlns='http://www.w3.org/2000/svg' viewBox='0 0 16 16'><path fill-rule='evenodd' d='M10.146 4.646a.5.5 0 0 1 .708 0l2.646 2.647-2.646 2.646a.5.5 0 0 1-.708-.707L11.293 8H2a.5.5 0 0 1 0-1h9.293L10.146 5.354a.5.5 0 0 1 0-.708z'/></svg><br>or<br><svg class='left-arrow' style='width: 48px; height: 48px;' xmlns='http://www.w3.org/2000/svg' viewBox='0 0 16 16'><path fill-rule='evenodd' d='M5.854 4.646a.5.5 0 0 0-.708 0L2.5 7.293l2.646 2.647a.5.5 0 0 0 .708-.707L4.707 8H14a.5.5 0 0 0 0-1H4.707l1.147-1.146a.5.5 0 0 0 0-.708z'/></svg>Press the <b>Left Arrow</b> on your keyboard to skip the trial</p>\n</div>\n",
    "response": "ArrowRight",
    "trial_type": "html-keyboard-response",
    "trial_index": 151,
    "plugin_version": null,
    "time_elapsed": 253327,
    "accepted": true
  },
  {
    "blockType": "sync",
    "task": "block",
    "randomDelay": [0, 0],
    "bounds": [54.74276439077627, 74.74276439077627],
    "reward": 0.11,
    "tapCount": 0,
    "startTime": 0,
    "endTime": 0,
    "mercuryHeight": 0,
    "error": "",
    "errorOccurred": false,
    "keysReleasedFlag": false,
    "success": true,
    "keyTappedEarlyFlag": false,
    "keysState": { "a": true, "w": true, "e": true },
    "trial_type": "task-plugin",
    "trial_index": 152,
    "plugin_version": "1.0",
    "time_elapsed": 253328,
    "medianTaps": { "calibrationPart1Median": 21, "calibrationPart2Median": 25 }
  },
  {
    "task": "success",
    "success": true,
    "trial_type": "success-screen-plugin",
    "trial_index": 154,
    "plugin_version": null,
    "time_elapsed": 253845
  },
  {
    "trial_type": "html-keyboard-response",
    "trial_index": 155,
    "plugin_version": null,
    "time_elapsed": 254164
  },
  {
    "task": "accept",
    "reward": 0.01,
    "bounds": [31.380905696351242, 51.38090569635124],
    "originalBounds": [30, 50],
    "delay": [0, 0],
    "rt": 675,
    "stimulus": "\n<div\n  id=\"acceptance-container\"\n  style=\"display: flex; flex-direction: column; justify-content: center; align-items: center; height: 100%;\"\n>\n  <div\n    id=\"thermometer-container\"\n    style=\"display: flex; justify-content: center; align-items: center; height: 300px; width: 100px; border: 1px solid #000; margin-bottom: 10px; box-sizing: border-box;\"\n  >\n    <div\n      id=\"thermometer\"\n      style=\"position: relative; width: 100%; height: 100%; background-color: #e0e0e0; box-sizing: border-box;\"\n    >\n      <div\n        id=\"blue-area\"\n        style=\"position: absolute; bottom: 31.380905696351242%; height: 20%; width: 100%; background-color: blue;\"\n      ></div>\n      <div\n        id=\"lower-bound\"\n        style=\"position: absolute; bottom: 31.380905696351242%; width: 100%; height: 2px; background-color: black;\"\n      ></div>\n      <div\n        id=\"upper-bound\"\n        style=\"position: absolute; bottom: 51.38090569635124%; width: 100%; height: 2px; background-color: black;\"\n      ></div>\n    </div>\n  </div>\n  <p style=\"text-align: center;\">Reward:  CHF 0.01</p>\n  <p style=\"text-align: center;\"><br>Press the <b>Right Arrow</b> on your keyboard to accept the trial <svg class='right-arrow' style='width: 48px; height: 48px;'xmlns='http://www.w3.org/2000/svg' viewBox='0 0 16 16'><path fill-rule='evenodd' d='M10.146 4.646a.5.5 0 0 1 .708 0l2.646 2.647-2.646 2.646a.5.5 0 0 1-.708-.707L11.293 8H2a.5.5 0 0 1 0-1h9.293L10.146 5.354a.5.5 0 0 1 0-.708z'/></svg><br>or<br><svg class='left-arrow' style='width: 48px; height: 48px;' xmlns='http://www.w3.org/2000/svg' viewBox='0 0 16 16'><path fill-rule='evenodd' d='M5.854 4.646a.5.5 0 0 0-.708 0L2.5 7.293l2.646 2.647a.5.5 0 0 0 .708-.707L4.707 8H14a.5.5 0 0 0 0-1H4.707l1.147-1.146a.5.5 0 0 0 0-.708z'/></svg>Press the <b>Left Arrow</b> on your keyboard to skip the trial</p>\n</div>\n",
    "response": "ArrowLeft",
    "trial_type": "html-keyboard-response",
    "trial_index": 157,
    "plugin_version": null,
    "time_elapsed": 254839,
    "accepted": false
  },
  {
    "task": "accept",
    "reward": 0.03,
    "bounds": [50.56117283424737, 70.56117283424737],
    "originalBounds": [50, 70],
    "delay": [0, 0],
    "rt": 466,
    "stimulus": "\n<div\n  id=\"acceptance-container\"\n  style=\"display: flex; flex-direction: column; justify-content: center; align-items: center; height: 100%;\"\n>\n  <div\n    id=\"thermometer-container\"\n    style=\"display: flex; justify-content: center; align-items: center; height: 300px; width: 100px; border: 1px solid #000; margin-bottom: 10px; box-sizing: border-box;\"\n  >\n    <div\n      id=\"thermometer\"\n      style=\"position: relative; width: 100%; height: 100%; background-color: #e0e0e0; box-sizing: border-box;\"\n    >\n      <div\n        id=\"blue-area\"\n        style=\"position: absolute; bottom: 50.56117283424737%; height: 20%; width: 100%; background-color: blue;\"\n      ></div>\n      <div\n        id=\"lower-bound\"\n        style=\"position: absolute; bottom: 50.56117283424737%; width: 100%; height: 2px; background-color: black;\"\n      ></div>\n      <div\n        id=\"upper-bound\"\n        style=\"position: absolute; bottom: 70.56117283424737%; width: 100%; height: 2px; background-color: black;\"\n      ></div>\n    </div>\n  </div>\n  <p style=\"text-align: center;\">Reward:  CHF 0.03</p>\n  <p style=\"text-align: center;\"><br>Press the <b>Right Arrow</b> on your keyboard to accept the trial <svg class='right-arrow' style='width: 48px; height: 48px;'xmlns='http://www.w3.org/2000/svg' viewBox='0 0 16 16'><path fill-rule='evenodd' d='M10.146 4.646a.5.5 0 0 1 .708 0l2.646 2.647-2.646 2.646a.5.5 0 0 1-.708-.707L11.293 8H2a.5.5 0 0 1 0-1h9.293L10.146 5.354a.5.5 0 0 1 0-.708z'/></svg><br>or<br><svg class='left-arrow' style='width: 48px; height: 48px;' xmlns='http://www.w3.org/2000/svg' viewBox='0 0 16 16'><path fill-rule='evenodd' d='M5.854 4.646a.5.5 0 0 0-.708 0L2.5 7.293l2.646 2.647a.5.5 0 0 0 .708-.707L4.707 8H14a.5.5 0 0 0 0-1H4.707l1.147-1.146a.5.5 0 0 0 0-.708z'/></svg>Press the <b>Left Arrow</b> on your keyboard to skip the trial</p>\n</div>\n",
    "response": "ArrowLeft",
    "trial_type": "html-keyboard-response",
    "trial_index": 159,
    "plugin_version": null,
    "time_elapsed": 255306,
    "accepted": false
  },
  {
    "task": "accept",
    "reward": 0.12,
    "bounds": [72.74057339878661, 92.74057339878661],
    "originalBounds": [70, 90],
    "delay": [0, 0],
    "rt": 704,
    "stimulus": "\n<div\n  id=\"acceptance-container\"\n  style=\"display: flex; flex-direction: column; justify-content: center; align-items: center; height: 100%;\"\n>\n  <div\n    id=\"thermometer-container\"\n    style=\"display: flex; justify-content: center; align-items: center; height: 300px; width: 100px; border: 1px solid #000; margin-bottom: 10px; box-sizing: border-box;\"\n  >\n    <div\n      id=\"thermometer\"\n      style=\"position: relative; width: 100%; height: 100%; background-color: #e0e0e0; box-sizing: border-box;\"\n    >\n      <div\n        id=\"blue-area\"\n        style=\"position: absolute; bottom: 72.74057339878661%; height: 20%; width: 100%; background-color: blue;\"\n      ></div>\n      <div\n        id=\"lower-bound\"\n        style=\"position: absolute; bottom: 72.74057339878661%; width: 100%; height: 2px; background-color: black;\"\n      ></div>\n      <div\n        id=\"upper-bound\"\n        style=\"position: absolute; bottom: 92.74057339878661%; width: 100%; height: 2px; background-color: black;\"\n      ></div>\n    </div>\n  </div>\n  <p style=\"text-align: center;\">Reward:  CHF 0.12</p>\n  <p style=\"text-align: center;\"><br>Press the <b>Right Arrow</b> on your keyboard to accept the trial <svg class='right-arrow' style='width: 48px; height: 48px;'xmlns='http://www.w3.org/2000/svg' viewBox='0 0 16 16'><path fill-rule='evenodd' d='M10.146 4.646a.5.5 0 0 1 .708 0l2.646 2.647-2.646 2.646a.5.5 0 0 1-.708-.707L11.293 8H2a.5.5 0 0 1 0-1h9.293L10.146 5.354a.5.5 0 0 1 0-.708z'/></svg><br>or<br><svg class='left-arrow' style='width: 48px; height: 48px;' xmlns='http://www.w3.org/2000/svg' viewBox='0 0 16 16'><path fill-rule='evenodd' d='M5.854 4.646a.5.5 0 0 0-.708 0L2.5 7.293l2.646 2.647a.5.5 0 0 0 .708-.707L4.707 8H14a.5.5 0 0 0 0-1H4.707l1.147-1.146a.5.5 0 0 0 0-.708z'/></svg>Press the <b>Left Arrow</b> on your keyboard to skip the trial</p>\n</div>\n",
    "response": "ArrowRight",
    "trial_type": "html-keyboard-response",
    "trial_index": 161,
    "plugin_version": null,
    "time_elapsed": 256011,
    "accepted": true
  },
  {
    "blockType": "sync",
    "task": "block",
    "randomDelay": [0, 0],
    "bounds": [72.74057339878661, 92.74057339878661],
    "reward": 0.12,
    "tapCount": 0,
    "startTime": 0,
    "endTime": 0,
    "mercuryHeight": 0,
    "error": "",
    "errorOccurred": false,
    "keysReleasedFlag": false,
    "success": true,
    "keyTappedEarlyFlag": false,
    "keysState": { "a": true, "w": true, "e": true },
    "trial_type": "task-plugin",
    "trial_index": 162,
    "plugin_version": "1.0",
    "time_elapsed": 256011,
    "medianTaps": { "calibrationPart1Median": 21, "calibrationPart2Median": 25 }
  },
  {
    "task": "success",
    "success": true,
    "trial_type": "success-screen-plugin",
    "trial_index": 164,
    "plugin_version": null,
    "time_elapsed": 256532
  },
  {
    "trial_type": "html-keyboard-response",
    "trial_index": 165,
    "plugin_version": null,
    "time_elapsed": 256954
  },
  {
    "task": "accept",
    "reward": 0.05,
    "bounds": [27.88028641426358, 47.88028641426358],
    "originalBounds": [30, 50],
    "delay": [0, 0],
    "rt": 1045,
    "stimulus": "\n<div\n  id=\"acceptance-container\"\n  style=\"display: flex; flex-direction: column; justify-content: center; align-items: center; height: 100%;\"\n>\n  <div\n    id=\"thermometer-container\"\n    style=\"display: flex; justify-content: center; align-items: center; height: 300px; width: 100px; border: 1px solid #000; margin-bottom: 10px; box-sizing: border-box;\"\n  >\n    <div\n      id=\"thermometer\"\n      style=\"position: relative; width: 100%; height: 100%; background-color: #e0e0e0; box-sizing: border-box;\"\n    >\n      <div\n        id=\"blue-area\"\n        style=\"position: absolute; bottom: 27.88028641426358%; height: 20%; width: 100%; background-color: blue;\"\n      ></div>\n      <div\n        id=\"lower-bound\"\n        style=\"position: absolute; bottom: 27.88028641426358%; width: 100%; height: 2px; background-color: black;\"\n      ></div>\n      <div\n        id=\"upper-bound\"\n        style=\"position: absolute; bottom: 47.88028641426358%; width: 100%; height: 2px; background-color: black;\"\n      ></div>\n    </div>\n  </div>\n  <p style=\"text-align: center;\">Reward:  CHF 0.05</p>\n  <p style=\"text-align: center;\"><br>Press the <b>Right Arrow</b> on your keyboard to accept the trial <svg class='right-arrow' style='width: 48px; height: 48px;'xmlns='http://www.w3.org/2000/svg' viewBox='0 0 16 16'><path fill-rule='evenodd' d='M10.146 4.646a.5.5 0 0 1 .708 0l2.646 2.647-2.646 2.646a.5.5 0 0 1-.708-.707L11.293 8H2a.5.5 0 0 1 0-1h9.293L10.146 5.354a.5.5 0 0 1 0-.708z'/></svg><br>or<br><svg class='left-arrow' style='width: 48px; height: 48px;' xmlns='http://www.w3.org/2000/svg' viewBox='0 0 16 16'><path fill-rule='evenodd' d='M5.854 4.646a.5.5 0 0 0-.708 0L2.5 7.293l2.646 2.647a.5.5 0 0 0 .708-.707L4.707 8H14a.5.5 0 0 0 0-1H4.707l1.147-1.146a.5.5 0 0 0 0-.708z'/></svg>Press the <b>Left Arrow</b> on your keyboard to skip the trial</p>\n</div>\n",
    "response": "ArrowLeft",
    "trial_type": "html-keyboard-response",
    "trial_index": 167,
    "plugin_version": null,
    "time_elapsed": 258000,
    "accepted": false
  },
  {
    "task": "accept",
    "reward": 0.12,
    "bounds": [30.98299826168258, 50.98299826168258],
    "originalBounds": [30, 50],
    "delay": [0, 0],
    "rt": 574,
    "stimulus": "\n<div\n  id=\"acceptance-container\"\n  style=\"display: flex; flex-direction: column; justify-content: center; align-items: center; height: 100%;\"\n>\n  <div\n    id=\"thermometer-container\"\n    style=\"display: flex; justify-content: center; align-items: center; height: 300px; width: 100px; border: 1px solid #000; margin-bottom: 10px; box-sizing: border-box;\"\n  >\n    <div\n      id=\"thermometer\"\n      style=\"position: relative; width: 100%; height: 100%; background-color: #e0e0e0; box-sizing: border-box;\"\n    >\n      <div\n        id=\"blue-area\"\n        style=\"position: absolute; bottom: 30.98299826168258%; height: 20%; width: 100%; background-color: blue;\"\n      ></div>\n      <div\n        id=\"lower-bound\"\n        style=\"position: absolute; bottom: 30.98299826168258%; width: 100%; height: 2px; background-color: black;\"\n      ></div>\n      <div\n        id=\"upper-bound\"\n        style=\"position: absolute; bottom: 50.98299826168258%; width: 100%; height: 2px; background-color: black;\"\n      ></div>\n    </div>\n  </div>\n  <p style=\"text-align: center;\">Reward:  CHF 0.12</p>\n  <p style=\"text-align: center;\"><br>Press the <b>Right Arrow</b> on your keyboard to accept the trial <svg class='right-arrow' style='width: 48px; height: 48px;'xmlns='http://www.w3.org/2000/svg' viewBox='0 0 16 16'><path fill-rule='evenodd' d='M10.146 4.646a.5.5 0 0 1 .708 0l2.646 2.647-2.646 2.646a.5.5 0 0 1-.708-.707L11.293 8H2a.5.5 0 0 1 0-1h9.293L10.146 5.354a.5.5 0 0 1 0-.708z'/></svg><br>or<br><svg class='left-arrow' style='width: 48px; height: 48px;' xmlns='http://www.w3.org/2000/svg' viewBox='0 0 16 16'><path fill-rule='evenodd' d='M5.854 4.646a.5.5 0 0 0-.708 0L2.5 7.293l2.646 2.647a.5.5 0 0 0 .708-.707L4.707 8H14a.5.5 0 0 0 0-1H4.707l1.147-1.146a.5.5 0 0 0 0-.708z'/></svg>Press the <b>Left Arrow</b> on your keyboard to skip the trial</p>\n</div>\n",
    "response": "ArrowRight",
    "trial_type": "html-keyboard-response",
    "trial_index": 169,
    "plugin_version": null,
    "time_elapsed": 258575,
    "accepted": true
  },
  {
    "blockType": "sync",
    "task": "block",
    "randomDelay": [0, 0],
    "bounds": [30.98299826168258, 50.98299826168258],
    "reward": 0.12,
    "tapCount": 0,
    "startTime": 0,
    "endTime": 0,
    "mercuryHeight": 0,
    "error": "",
    "errorOccurred": false,
    "keysReleasedFlag": false,
    "success": true,
    "keyTappedEarlyFlag": false,
    "keysState": { "a": true, "w": true, "e": true },
    "trial_type": "task-plugin",
    "trial_index": 170,
    "plugin_version": "1.0",
    "time_elapsed": 258576,
    "medianTaps": { "calibrationPart1Median": 21, "calibrationPart2Median": 25 }
  },
  {
    "task": "success",
    "success": true,
    "trial_type": "success-screen-plugin",
    "trial_index": 172,
    "plugin_version": null,
    "time_elapsed": 259091
  },
  {
    "trial_type": "html-keyboard-response",
    "trial_index": 173,
    "plugin_version": null,
    "time_elapsed": 259409
  },
  {
    "task": "accept",
    "reward": 0.06,
    "bounds": [47.3638243305551, 67.3638243305551],
    "originalBounds": [50, 70],
    "delay": [0, 0],
    "rt": 751,
